date,time,millis,ax,ay,az,rollrate,pitchrate,yawrate,roll,pitch,yaw,speed,course,latitude,longitude,altitude,pdop,hdop,vdop,epe,fix,satellites_view,satellites_used,temp
230414,82802500,1398245285010.435,-0.4216,-0.0392,-9.6589,-0.6956,-2.0173,-0.2086,1.7718,-4.2198,-79.354,34.06,290.93,51.044934999999995,13.777610000000001,117.74,3.9,1.74,3.49,1.84,3.0,9.0,6.0,41.01
230414,82802500,1398245285022.156,-1.0884,-0.5883,-10.2375,-0.8347,-3.2,-0.2782,2.0113,-4.8247,-79.4023,34.06,290.93,51.044934999999995,13.777610000000001,117.74,3.9,1.74,3.49,1.84,3.0,9.0,6.0,41.01
230414,82802500,1398245285041.6309,-0.9806,-0.3628,-9.5805,-1.0434,-1.5304,-0.2086,1.9184,-4.9317,-79.493,34.06,290.93,51.044938,13.777597,117.74,3.9,1.74,3.49,1.84,3.0,9.0,6.0,41.01
230414,82802600,1398245285057.814,-1.5003,-0.5099,-10.0806,-0.5565,-3.1304,-0.1391,1.9049,-5.4766,-79.5726,34.13,290.75,51.044938,13.777597,117.77,3.9,1.74,3.49,1.84,3.0,9.0,6.0,41.01
230414,82802600,1398245285070.4292,-0.9904,-0.7844,-9.7374,-0.8347,-1.7391,0.0,2.2424,-5.1644,-79.6809,34.13,290.75,51.044938,13.777597,117.77,3.9,1.74,3.49,1.84,3.0,9.0,6.0,41.01
230414,82802600,1398245285090.4182,-0.1863,-0.2745,-9.6785,-0.626,-0.6956,-0.0695,1.9426,-5.2374,-79.8378,34.13,290.75,51.044938,13.777597,117.77,3.9,1.74,3.49,1.84,3.0,9.0,6.0,41.01
230414,82802600,1398245285101.717,-0.402,-0.451,-9.9629,-1.113,-2.4347,-0.2782,2.0269999999999997,-4.6637,-79.9803,34.13,290.75,51.044938,13.777597,117.77,3.9,1.74,3.49,1.84,3.0,9.0,6.0,41.01
230414,82802600,1398245285129.272,-0.402,-0.3726,-9.453,-1.5304,-2.4347,-0.4869,2.8005,-5.0368,-80.0518,34.13,290.75,51.044942,13.777584,117.77,3.9,1.74,3.49,1.84,3.0,9.0,6.0,41.01
230414,82802700,1398245285143.156,0.3235,-0.1176,-9.5314,-1.4608,-1.0434,-0.4869,2.6855,-5.0416,-80.1548,34.2299,290.27,51.044942,13.777584,117.79,3.9,1.74,3.49,1.84,3.0,9.0,6.0,41.01
230414,82802700,1398245285159.6328,-0.6373,-0.2745,-9.855,-1.3913,-2.5739,-0.4173,2.4631,-4.9373,-80.3175,34.2299,290.27,51.044942,13.777584,117.79,3.9,1.74,3.49,1.84,3.0,9.0,6.0,41.01
230414,82802700,1398245285175.51,-0.9413,-0.3039,-10.2669,-1.8782,-3.2,-0.4173,2.8812,-4.5756,-80.3636,34.2299,290.27,51.044942,13.777584,117.79,3.9,1.74,3.49,1.84,3.0,9.0,6.0,41.01
230414,82802700,1398245285192.936,-0.5687,-0.706,-9.404,-1.9478,-1.6695,-0.3478,2.6447,-4.7335,-80.4725,34.2299,290.27,51.044942,13.777584,117.79,3.9,1.74,3.49,1.84,3.0,9.0,6.0,41.01
230414,82802700,1398245285210.927,-1.3042,-0.6079,-9.7864,-2.3652,-2.9217,-0.2782,2.526,-5.5534,-80.5439,34.2299,290.27,51.044945,13.777571,117.79,3.9,1.74,3.49,1.85,3.0,9.0,6.0,41.01
230414,82802800,1398245285230.8271,-1.6474,-0.4608,-9.7276,-1.8782,-2.713,-0.1391,1.8464,-5.0747,-80.6415,34.6,290.24,51.044945,13.777571,117.79,3.9,1.74,3.49,1.85,3.0,9.0,6.0,41.01
230414,82802800,1398245285250.449,-0.3922,-0.4216,-9.7079,-1.3913,-2.2956,-0.1391,1.6583,-5.0508,-80.8408,34.6,290.24,51.044945,13.777571,117.79,3.9,1.74,3.49,1.85,3.0,9.0,6.0,41.01
230414,82802800,1398245285269.5178,-0.4903,-0.2451,-9.6981,-0.9043,-1.0434,0.0,1.2542,-5.0702,-81.0996,34.6,290.24,51.044945,13.777571,117.79,3.9,1.74,3.49,1.85,3.0,9.0,6.0,41.01
230414,82802800,1398245285290.3918,-0.3432,-0.2843,-10.6984,-0.9043,-2.8521,-0.0695,0.9582,-4.3828,-81.3344,34.6,290.24,51.044945,13.777571,117.79,3.9,1.74,3.49,1.85,3.0,9.0,6.0,41.01
230414,82802800,1398245285310.953,-0.1274,-0.2451,-9.3745,-0.7652,-2.0869,-0.4173,1.3767,-4.6882,-81.4947,34.6,290.24,51.044948,13.777557999999999,117.79,3.9,1.74,3.49,1.85,3.0,9.0,6.0,41.01
230414,82802900,1398245285330.864,-0.0294,0.1863,-10.158999999999999,-0.5565,-2.0869,-0.5565,0.9766,-5.0694,-81.7394,34.64,290.07,51.044948,13.777557999999999,117.79,3.9,1.74,3.49,1.85,3.0,9.0,6.0,41.01
230414,82802900,1398245285350.436,-0.2843,0.1667,-9.1392,-0.2086,-2.4347,-0.2782,0.961,-4.607,-81.9116,34.64,290.07,51.044948,13.777557999999999,117.79,3.9,1.74,3.49,1.85,3.0,9.0,6.0,41.01
230414,82802900,1398245285370.1702,-1.2257,-0.5687,-10.4826,-0.9043,-4.3826,-0.4173,2.3752,-4.6687,-82.0146,34.64,290.07,51.044948,13.777557999999999,117.79,3.9,1.74,3.49,1.85,3.0,9.0,6.0,41.01
230414,82802900,1398245285390.435,-0.7256,-1.1178,-9.757,-1.6695,-2.2956,-0.2782,2.9982,-4.7744,-82.0244,34.64,290.07,51.044948,13.777557999999999,117.79,3.9,1.74,3.49,1.85,3.0,9.0,6.0,41.01
230414,82802900,1398245285410.914,-1.1276,-0.7158,-9.1,-2.0173,-2.226,-0.4173,2.8785,-4.5741,-82.1079,34.64,290.07,51.044951,13.777545000000002,117.79,3.9,1.74,3.49,1.85,3.0,9.0,6.0,41.01
230414,82803000,1398245285433.2048,-1.5591,-0.5785,-9.4432,-1.6,-2.8521,-0.2086,2.7689,-5.3077,-82.1703,35.12,289.65,51.044951,13.777545000000002,117.79,3.9,1.74,3.49,1.85,3.0,9.0,6.0,41.01
230414,82803000,1398245285450.398,-0.8923,-0.0588,-9.4922,-1.9478,-2.2956,-0.1391,2.1119,-5.0169999999999995,-82.2119,35.12,289.65,51.044951,13.777545000000002,117.79,3.9,1.74,3.49,1.85,3.0,9.0,6.0,41.01
230414,82803000,1398245285470.7659,-0.1372,-0.2353,-9.4334,-1.3217,-0.9739,-0.2782,1.9680000000000002,-4.9548,-82.2738,35.12,289.65,51.044951,13.777545000000002,117.79,3.9,1.74,3.49,1.85,3.0,9.0,6.0,41.01
230414,82803000,1398245285492.7341,-0.6766,-0.4412,-10.1982,-1.113,-2.3652,-0.2086,1.7726,-4.6002,-82.3648,35.12,289.65,51.044951,13.777545000000002,117.79,3.9,1.74,3.49,1.85,3.0,9.0,6.0,41.01
230414,82803000,1398245285510.853,-0.6766,0.147,-9.502,-1.3217,-2.8521,-0.3478,1.4544,-4.6969,-82.4378,35.12,289.65,51.044953,13.777531,117.79,3.9,1.74,3.49,1.85,3.0,9.0,6.0,41.01
230414,82803100,1398245285530.8052,0.1765,0.2745,-9.5608,-1.1826,-1.1826,-0.4869,1.2937,-4.9322,-82.4414,35.09,291.17,51.044953,13.777531,117.79,3.9,1.74,3.49,1.85,3.0,9.0,6.0,41.01
230414,82803100,1398245285550.415,-0.2353,0.2059,-10.4238,-0.8347,-2.5043,-0.4173,1.2421,-4.5925,-82.4911,35.09,291.17,51.044953,13.777531,117.79,3.9,1.74,3.49,1.85,3.0,9.0,6.0,41.01
230414,82803100,1398245285570.546,-0.4706,-0.5589,-9.5608,-0.6956,-2.2956,-0.2782,2.1555,-4.4812,-82.3809,35.09,291.17,51.044953,13.777531,117.79,3.9,1.74,3.49,1.85,3.0,9.0,6.0,41.01
230414,82803100,1398245285590.36,-1.1473,-0.451,-10.2473,-1.2521,-2.9913,-0.2782,1.7978,-4.2074,-82.4044,35.09,291.17,51.044953,13.777531,117.79,3.9,1.74,3.49,1.85,3.0,9.0,6.0,41.01
230414,82803100,1398245285610.898,-0.8433,-0.6079,-9.9335,-1.113,-1.3913,-0.1391,1.7957,-4.3278,-82.3731,35.09,291.17,51.044957000000004,13.777517999999999,117.79,3.9,1.74,3.49,1.85,3.0,9.0,6.0,41.01
230414,82803200,1398245285630.8992,-0.8531,-0.7158,-9.0607,-0.626,-1.6,-0.1391,2.1502,-4.4808,-82.334,35.2,290.61,51.044957000000004,13.777517999999999,117.74,3.9,1.74,3.49,1.85,3.0,9.0,6.0,41.01
230414,82803200,1398245285650.4421,-1.3728,-0.4608,-10.0806,-1.113,-2.1565,-0.1391,1.986,-4.476,-82.2932,35.2,290.61,51.044957000000004,13.777517999999999,117.74,3.9,1.74,3.49,1.85,3.0,9.0,6.0,41.01
230414,82803200,1398245285673.065,-0.5197,-0.2745,-10.5022,-0.7652,-1.7391,-0.2086,1.8925,-3.9463,-82.2817,35.2,290.61,51.044957000000004,13.777517999999999,117.74,3.9,1.74,3.49,1.85,3.0,9.0,6.0,41.01
230414,82803200,1398245285690.319,-0.147,-0.2745,-10.1296,-1.3913,-1.3913,0.0,1.8919,-3.9504,-82.2689,35.2,290.61,51.044957000000004,13.777517999999999,117.74,3.9,1.74,3.49,1.85,3.0,9.0,6.0,41.01
230414,82803200,1398245285710.9092,-0.6766,-0.1078,-9.9237,-1.9478,-2.6434,-0.1391,1.8845,-3.955,-82.2535,35.2,290.61,51.044959999999996,13.777505,117.74,3.9,1.74,3.49,1.85,3.0,9.0,6.0,41.01
230414,82803300,1398245285732.13,-0.8629,-0.0098,-9.7962,-1.9478,-2.9217,-0.4869,1.8677,-3.9788,-82.2363,35.26,291.22,51.044959999999996,13.777505,117.71,3.9,1.74,3.49,1.85,3.0,9.0,6.0,41.01
230414,82803300,1398245285750.3418,-0.1667,0.1274,-9.6981,-1.3217,-1.9478,-0.5565,1.8555,-4.002,-82.2207,35.26,291.22,51.044959999999996,13.777505,117.71,3.9,1.74,3.49,1.85,3.0,9.0,6.0,41.01
230414,82803300,1398245285763.819,0.3235,0.2451,-9.5216,-1.3913,-1.9478,-0.4173,1.8466,-4.0129,-82.2054,35.26,291.22,51.044959999999996,13.777505,117.71,3.9,1.74,3.49,1.85,3.0,9.0,6.0,41.01
230414,82803300,1398245285789.294,-0.4118,-0.5491,-9.3059,-1.113,-2.5043,-0.4173,1.8508,-4.0325,-82.1899,35.26,291.22,51.044959999999996,13.777505,117.71,3.9,1.74,3.49,1.85,3.0,9.0,6.0,41.01
230414,82803300,1398245285801.555,-1.1079999999999999,-0.6079,-10.0119,-1.3217,-3.826,-0.4173,1.8397,-4.0581,-82.1788,35.26,291.22,51.044963,13.777492,117.71,3.91,1.74,3.49,1.85,3.0,9.0,6.0,41.01
230414,82803400,1398245285821.5771,-0.7256,-0.7158,-9.2667,-1.6695,-2.0173,-0.4173,1.8291,-4.0973,-82.1669,35.36,291.46,51.044963,13.777492,117.68,3.91,1.74,3.49,1.85,3.0,9.0,6.0,41.01
230414,82803400,1398245285836.2,-0.6471,-0.7158,-9.4922,-1.6,-2.1565,-0.1391,1.8169,-4.1214,-82.1573,35.36,291.46,51.044963,13.777492,117.68,3.91,1.74,3.49,1.85,3.0,9.0,6.0,41.01
230414,82803400,1398245285857.2449,-1.3434,-0.3824,-10.414000000000001,-1.2521,-2.713,-0.1391,1.4627,-4.5209,-82.2818,35.36,291.46,51.044963,13.777492,117.68,3.91,1.74,3.49,1.85,3.0,9.0,6.0,41.01
230414,82803400,1398245285881.1182,-0.9315,-0.4706,-9.7668,-1.3217,-2.0869,-0.1391,1.6171,-3.9311,-82.3344,35.36,291.46,51.044963,13.777492,117.68,3.91,1.74,3.49,1.85,3.0,9.0,6.0,41.01
230414,82803400,1398245285896.6611,-0.5197,0.3137,-9.9335,-1.4608,-0.4173,-0.1391,1.2076,-4.4655,-82.4722,35.36,291.46,51.044965999999995,13.777479000000001,117.68,3.9,1.74,3.49,1.85,3.0,9.0,6.0,41.01
230414,82803500,1398245285921.0571,-0.4216,-0.0784,-10.1002,-1.6,-1.1826,0.0,0.9317,-4.6204,-82.6237,35.6599,292.05,51.044965999999995,13.777479000000001,117.65,3.9,1.74,3.49,1.85,3.0,9.0,6.0,41.01
230414,82803500,1398245285932.553,-1.0982,-0.3824,-10.0119,-1.2521,-2.2956,-0.2782,1.2116,-4.6979,-82.7493,35.6599,292.05,51.044965999999995,13.777479000000001,117.65,3.9,1.74,3.49,1.85,3.0,9.0,6.0,41.01
230414,82803500,1398245285950.498,0.0882,-0.2451,-9.806000000000001,-1.1826,-3.1304,-0.2086,1.7268,-4.0654,-82.7575,35.6599,292.05,51.044965999999995,13.777479000000001,117.65,3.9,1.74,3.49,1.85,3.0,9.0,6.0,41.01
230414,82803500,1398245285970.499,0.2157,0.098,-9.5412,-0.9739,-1.6695,-0.2782,1.5819,-4.0894,-82.8562,35.6599,292.05,51.044965999999995,13.777479000000001,117.65,3.9,1.74,3.49,1.85,3.0,9.0,6.0,41.06
230414,82803500,1398245285990.9302,0.2255,-0.098,-9.9727,-0.7652,-2.1565,-0.4173,1.7834,-4.501,-82.9609,35.6599,292.05,51.044969,13.777466,117.65,3.9,1.74,3.49,1.85,3.0,9.0,6.0,41.06
230414,82803600,1398245286010.843,-1.2061,-0.5001,-10.2767,-0.1391,-3.5478,-0.2086,1.5355,-4.3389,-83.0547,35.7299,292.39,51.044969,13.777466,117.64,3.9,1.74,3.49,1.85,3.0,9.0,6.0,41.06
230414,82803600,1398245286026.338,-0.8727,-0.2255,-9.2667,-0.626,-3.2695,-0.4173,1.2291,-4.3023,-83.1725,35.7299,292.39,51.044969,13.777466,117.64,3.9,1.74,3.49,1.85,3.0,9.0,6.0,41.06
230414,82803600,1398245286036.14,-0.6275,-0.5393,-10.2571,-0.8347,-2.9913,-0.4173,2.032,-4.4469,-83.2153,35.7299,292.39,51.044969,13.777466,117.64,3.9,1.74,3.49,1.85,3.0,9.0,6.0,41.06
230414,82803600,1398245286057.234,-0.2157,-0.5393,-9.0019,-0.9043,-1.113,-0.2086,1.9502,-4.3288,-83.3791,35.7299,292.39,51.044969,13.777466,117.64,3.9,1.74,3.49,1.85,3.0,9.0,6.0,41.06
230414,82803600,1398245286092.1008,-1.5591,-0.6373,-10.5611,-0.9043,-3.4782,-0.2086,2.1453,-4.9306,-83.4986,35.7299,292.39,51.044971999999994,13.777453,117.64,3.9,1.74,3.49,1.85,3.0,9.0,6.0,41.06
230414,82803700,1398245286110.825,-1.4022,-0.5589,-9.2863,-1.113,-2.5739,0.0,2.38,-4.8327,-83.5447,36.26,292.14,51.044971999999994,13.777453,117.61,3.9,1.74,3.49,1.85,3.0,9.0,6.0,41.06
230414,82803700,1398245286128.085,-0.9707,-0.2059,-10.7964,-0.9739,-3.6173,0.0,1.9332,-4.5256,-83.6626,36.26,292.14,51.044971999999994,13.777453,117.61,3.9,1.74,3.49,1.85,3.0,9.0,6.0,41.06
230414,82803700,1398245286141.5762,-0.3726,-0.1765,-9.2961,-1.113,-1.4608,-0.1391,1.9077,-5.0765,-83.7395,36.26,292.14,51.044971999999994,13.777453,117.61,3.9,1.74,3.49,1.85,3.0,9.0,6.0,41.06
230414,82803700,1398245286156.931,-1.1375,-0.2255,-10.9043,-1.4608,-2.9913,0.0,2.09,-4.6038,-83.7756,36.26,292.14,51.044971999999994,13.777453,117.61,3.9,1.74,3.49,1.85,3.0,9.0,6.0,41.06
230414,82803700,1398245286170.9329,-1.6768,-0.1568,-10.4434,-1.3913,-3.6173,-0.1391,1.4916,-4.831,-83.8786,36.26,292.14,51.044975,13.777439999999999,117.61,1.74,1.45,0.96,1.85,3.0,9.0,6.0,41.06
230414,82803800,1398245286201.1008,-0.6177,0.0098,-9.1098,-1.1826,-1.3913,-0.2086,1.4149,-4.3218,-83.9562,35.95,292.5899,51.044975,13.777439999999999,117.61,1.74,1.45,0.96,1.85,3.0,9.0,6.0,41.06
230414,82803800,1398245286216.096,-0.049,0.2353,-9.0902,-1.0434,-1.1826,-0.3478,1.4041,-4.8435,-84.0368,35.95,292.5899,51.044975,13.777439999999999,117.61,1.74,1.45,0.96,1.85,3.0,9.0,6.0,41.06
230414,82803800,1398245286242.72,-0.4118,-0.1961,-9.6295,-1.113,-1.113,-0.3478,1.8255,-4.602,-84.0477,35.95,292.5899,51.044975,13.777439999999999,117.61,1.74,1.45,0.96,1.85,3.0,9.0,6.0,41.06
230414,82803800,1398245286258.106,-0.1568,-0.3726,-9.198,-0.9739,-1.1826,-0.4173,1.9114,-4.1283,-84.1371,35.95,292.5899,51.044975,13.777439999999999,117.61,1.74,1.45,0.96,1.85,3.0,9.0,6.0,41.06
230414,82803800,1398245286292.2158,-1.0688,-0.5001,-10.3944,-1.1826,-3.0608,-0.3478,1.963,-4.3283,-84.2623,35.95,292.5899,51.044979,13.777426,117.61,3.91,1.74,3.49,1.86,3.0,9.0,6.0,41.06
230414,82803900,1398245286310.854,-0.2353,-0.3628,-8.2861,-1.2521,-0.4173,-0.3478,1.9324,-4.7454,-84.2844,35.97,292.12,51.044979,13.777426,117.6,3.91,1.74,3.49,1.86,3.0,9.0,6.0,41.06
230414,82803900,1398245286330.095,-0.4314,-0.6471,-9.7766,-0.6956,-0.3478,-0.4869,2.3332,-5.2693,-84.3297,35.97,292.12,51.044979,13.777426,117.6,3.91,1.74,3.49,1.86,3.0,9.0,6.0,41.06
230414,82803900,1398245286342.122,-0.8923,-0.7256,-9.8844,-0.9739,-0.2086,-0.2782,2.7771,-5.1341,-84.3722,35.97,292.12,51.044979,13.777426,117.6,3.91,1.74,3.49,1.86,3.0,9.0,6.0,41.06
230414,82803900,1398245286358.114,-1.3042,-0.402,-9.9433,-1.3217,-1.5304,-0.4869,2.6279,-4.9139,-84.4645,35.97,292.12,51.044979,13.777426,117.6,3.91,1.74,3.49,1.86,3.0,9.0,6.0,41.06
230414,82803900,1398245286392.205,-1.7062,-0.7648,-11.3357,-1.8782,-2.4347,-0.2086,2.7185,-4.4716,-84.6325,35.97,292.12,51.044982,13.777413000000001,117.6,3.91,1.74,3.49,1.86,3.0,9.0,6.0,41.06
230414,82804000,1398245286410.862,-0.7452,-0.3922,-8.9333,-2.2956,-0.0695,-0.0695,2.3602,-5.0879,-84.8727,36.1,291.91,51.044982,13.777413000000001,117.59,3.91,1.74,3.49,1.86,3.0,9.0,6.0,41.06
230414,82804000,1398245286430.4758,-0.5197,-0.5883,-10.0315,-3.2,-0.8347,0.0,2.7291,-4.8484,-85.0374,36.1,291.91,51.044982,13.777413000000001,117.59,3.91,1.74,3.49,1.86,3.0,9.0,6.0,41.06
230414,82804000,1398245286442.678,-0.5491,-0.1568,-10.7474,-2.713,-2.226,-0.0695,1.5764,-4.3601,-85.3339,36.1,291.91,51.044982,13.777413000000001,117.59,3.91,1.74,3.49,1.86,3.0,9.0,6.0,41.06
230414,82804000,1398245286459.384,-1.6179,0.2157,-11.5711,-2.0173,-3.5478,-0.2086,0.4232,-3.8358,-85.6258,36.1,291.91,51.044982,13.777413000000001,117.59,3.91,1.74,3.49,1.86,3.0,9.0,6.0,41.06
230414,82804000,1398245286478.481,-0.2843,-0.3137,-10.4924,-2.0173,-2.713,0.0,1.0761,-3.5953,-85.7999,36.1,291.91,51.044985,13.7774,117.59,3.91,1.74,3.49,1.86,3.0,9.0,6.0,41.06
230414,82804100,1398245286496.5789,0.2353,0.0882,-8.8842,-1.3217,-0.9043,-0.4173,0.8526,-3.6855,-86.0245,36.2,291.64,51.044985,13.7774,117.57,3.91,1.74,3.49,1.86,3.0,9.0,6.0,41.06
230414,82804100,1398245286519.73,-0.4314,0.2059,-9.7374,-0.626,-3.2,-0.626,0.2241,-4.9016,-86.294,36.2,291.64,51.044985,13.7774,117.57,3.91,1.74,3.49,1.86,3.0,9.0,6.0,41.06
230414,82804100,1398245286530.364,-0.5295,-0.0882,-9.4432,-0.626,-3.7565,-0.5565,1.0883,-4.1587,-86.4436,36.2,291.64,51.044985,13.7774,117.57,3.91,1.74,3.49,1.86,3.0,9.0,6.0,41.06
230414,82804100,1398245286551.015,-0.2059,-0.3432,-10.5513,-0.4869,-4.2434,-0.4869,1.3248,-3.6893,-86.7327,36.2,291.64,51.044985,13.7774,117.57,3.91,1.74,3.49,1.86,3.0,9.0,6.0,41.06
230414,82804100,1398245286570.974,-0.0588,-0.9217,-9.0117,-0.9739,-4.5913,-0.5565,2.025,-4.3332,-86.8135,36.2,291.64,51.044989,13.777385999999998,117.57,3.91,1.74,3.5,1.86,3.0,9.0,6.0,41.06
230414,82804200,1398245286596.724,-0.5883,-0.6864,-10.0021,-1.6,-4.5913,-0.4173,2.5553,-4.9197,-86.8938,36.15,291.66,51.044989,13.777385999999998,117.55,3.91,1.74,3.5,1.86,3.0,9.0,6.0,41.06
230414,82804200,1398245286619.305,-0.3137,-0.2353,-8.9921,-1.9478,-2.8521,-0.2086,1.5535,-4.8495,-86.9901,36.15,291.66,51.044989,13.777385999999998,117.55,3.91,1.74,3.5,1.86,3.0,9.0,6.0,41.06
230414,82804200,1398245286630.384,-0.1274,-0.6962,-10.8651,-1.6,-3.3391,-0.5565,1.6402,-4.4543,-87.0927,36.15,291.66,51.044989,13.777385999999998,117.55,3.91,1.74,3.5,1.86,3.0,9.0,6.0,41.06
230414,82804200,1398245286643.362,-1.1571,-0.4706,-9.7079,-1.9478,-3.0608,-0.2782,2.3599,-4.4634,-87.0869,36.15,291.66,51.044989,13.777385999999998,117.55,3.91,1.74,3.5,1.86,3.0,9.0,6.0,41.06
230414,82804200,1398245286670.268,-1.6278,0.0294,-9.855,-1.8086,-4.1043,-0.4869,1.7487,-5.2432,-87.1214,36.15,291.66,51.044992,13.777373,117.55,3.91,1.74,3.49,1.87,3.0,9.0,6.0,41.06
230414,82804300,1398245286691.7842,-1.2943,0.0882,-9.8158,-2.4347,-3.0608,-0.3478,1.3309,-5.3013,-87.0814,36.19,291.48,51.044992,13.777373,117.54,3.91,1.74,3.49,1.87,3.0,9.0,6.0,41.06
230414,82804300,1398245286712.958,-1.7062,-0.2549,-10.4042,-1.6695,-2.5739,-0.2086,1.7649,-6.1113,-86.9982,36.19,291.48,51.044992,13.777373,117.54,3.91,1.74,3.49,1.87,3.0,9.0,6.0,41.06
230414,82804300,1398245286730.36,-0.9315,-0.0294,-9.3157,-2.6434,-1.3913,0.2086,1.3845,-5.3607,-86.9786,36.19,291.48,51.044992,13.777373,117.54,3.91,1.74,3.49,1.87,3.0,9.0,6.0,41.06
230414,82804300,1398245286742.6182,-1.2061,-0.3628,-10.3944,-1.6695,-2.3652,0.2086,1.6149,-5.2885,-86.9307,36.19,291.48,51.044992,13.777373,117.54,3.91,1.74,3.49,1.87,3.0,9.0,6.0,41.06
230414,82804300,1398245286760.4111,-1.7454,0.0588,-10.7964,-2.5739,-3.4086,0.6956,1.7671,-4.8915,-86.9194,36.19,291.48,51.044996000000005,13.77736,117.54,3.91,1.74,3.5,1.87,3.0,9.0,6.0,41.06
230414,82804400,1398245286788.7542,-1.8631,-0.098,-10.5218,-1.7391,-3.4086,0.3478,0.9038,-5.2588,-86.9911,36.25,291.0899,51.044996000000005,13.77736,117.52,3.91,1.74,3.5,1.87,3.0,9.0,6.0,41.06
230414,82804400,1398245286800.7058,-0.3235,-0.402,-8.7175,-1.5304,-0.5565,0.2782,1.5342,-5.2432,-86.8244,36.25,291.0899,51.044996000000005,13.77736,117.52,3.91,1.74,3.5,1.87,3.0,9.0,6.0,41.06
230414,82804400,1398245286816.168,0.0588,-0.5589,-8.7568,-1.0434,-0.9043,0.0695,2.6369,-4.5252,-86.6928,36.25,291.0899,51.044996000000005,13.77736,117.52,3.91,1.74,3.5,1.87,3.0,9.0,6.0,41.06
230414,82804400,1398245286833.094,-0.3432,0.1176,-10.0413,-1.2521,-1.3913,-0.1391,1.2005,-4.2458,-86.8124,36.25,291.0899,51.044996000000005,13.77736,117.52,3.91,1.74,3.5,1.87,3.0,9.0,6.0,41.06
230414,82804400,1398245286850.877,-0.6962,-0.6177,-10.2375,-0.6956,-2.9217,-0.0695,2.4104,-4.7112,-86.8602,36.25,291.0899,51.044999,13.777346,117.52,3.91,1.74,3.5,1.87,3.0,9.0,6.0,41.06
230414,82804500,1398245286879.689,-0.4412,-0.4706,-9.2274,-0.9043,-2.226,-0.2782,2.2656,-4.7154,-86.7717,36.2299,291.11,51.044999,13.777346,117.51,3.91,1.74,3.5,1.87,3.0,9.0,6.0,41.06
230414,82804500,1398245286895.2542,-1.0296,-0.8727,-10.1296,0.1391,-3.3391,-0.4173,2.1069,-4.9872,-86.7045,36.2299,291.11,51.044999,13.777346,117.51,3.91,1.74,3.5,1.87,3.0,9.0,6.0,41.06
230414,82804500,1398245286912.0579,-0.6766,-0.5197,-8.7077,-1.0434,-1.4608,-0.1391,2.1305,-4.556,-86.5261,36.2299,291.11,51.044999,13.777346,117.51,3.91,1.74,3.5,1.87,3.0,9.0,6.0,41.06
230414,82804500,1398245286930.305,-0.2353,-0.5295,-9.2667,-0.4869,-1.4608,-0.2086,1.7495,-4.3059,-86.4254,36.2299,291.11,51.044999,13.777346,117.51,3.91,1.74,3.5,1.87,3.0,9.0,6.0,41.06
230414,82804500,1398245286951.051,-0.5295,-0.5981,-9.0215,-0.626,-0.9739,-0.4173,2.0212,-4.4928,-86.3403,36.2299,291.11,51.045002000000004,13.777332999999999,117.51,3.91,1.74,3.5,1.87,3.0,9.0,6.0,41.06
230414,82804600,1398245286970.9448,-0.9119,-0.5393,-8.7175,-0.7652,-0.8347,-0.1391,1.9462,-5.39,-86.1351,36.27,290.86,51.045002000000004,13.777332999999999,117.49,3.91,1.74,3.5,1.87,3.0,9.0,6.0,41.06
230414,82804600,1398245286993.171,-1.3238,-0.6668,-9.6785,-0.9739,-1.5304,0.1391,1.8295,-4.5177,-85.9646,36.27,290.86,51.045002000000004,13.777332999999999,117.49,3.91,1.74,3.5,1.87,3.0,9.0,6.0,41.06
230414,82804600,1398245287010.397,-1.1767,-0.3824,-9.7962,-1.3913,-1.4608,0.1391,2.3214,-4.8178,-85.7979,36.27,290.86,51.045002000000004,13.777332999999999,117.49,3.91,1.74,3.5,1.87,3.0,9.0,6.0,41.06
230414,82804600,1398245287021.614,-1.1079999999999999,-0.0294,-10.0315,-0.9043,-0.5565,0.1391,1.9622,-4.505,-85.74799999999999,36.27,290.86,51.045002000000004,13.777332999999999,117.49,3.91,1.74,3.5,1.87,3.0,9.0,6.0,41.06
230414,82804600,1398245287036.867,-1.3826,0.0784,-9.6687,-1.5304,-0.6956,0.0695,1.2647,-5.0445,-85.61200000000001,36.27,290.86,51.045006,13.777319,117.49,3.91,1.74,3.5,1.88,3.0,9.0,6.0,41.06
230414,82804700,1398245287060.39,-1.2159,-0.2059,-10.3159,-1.1826,-0.8347,0.2782,1.6722,-4.447,-85.3841,36.27,290.7799,51.045006,13.777319,117.47,3.91,1.74,3.5,1.88,3.0,9.0,6.0,41.06
230414,82804700,1398245287078.1418,-0.8139,0.0196,-9.404,-1.0434,-0.4173,0.0695,1.3301,-4.752,-85.2688,36.27,290.7799,51.045006,13.777319,117.47,3.91,1.74,3.5,1.88,3.0,9.0,6.0,41.06
230414,82804700,1398245287099.9128,-0.8727,-0.1568,-10.3551,-1.2521,-0.9739,0.0695,1.2407,-4.6081,-85.2004,36.27,290.7799,51.045006,13.777319,117.47,3.91,1.74,3.5,1.88,3.0,9.0,6.0,41.06
230414,82804700,1398245287110.418,-1.3238,-0.0882,-10.4238,-1.6,-2.226,0.2086,1.8429,-5.1878,-85.0935,36.27,290.7799,51.045006,13.777319,117.47,3.91,1.74,3.5,1.88,3.0,9.0,6.0,41.06
230414,82804700,1398245287130.886,-1.1571,0.0588,-10.2375,-1.3913,-2.4347,0.1391,1.0033,-4.7181,-85.0406,36.27,290.7799,51.045009,13.777306,117.47,3.91,1.74,3.5,1.88,3.0,9.0,6.0,41.06
230414,82804800,1398245287150.887,-1.2747,0.0098,-9.9237,-1.3217,-2.4347,0.2782,1.4292,-4.9594,-84.9251,36.6599,290.41,51.045009,13.777306,117.45,3.91,1.74,3.5,1.88,3.0,9.0,6.0,41.06
230414,82804800,1398245287172.9958,-1.3042,-0.1863,-10.1002,-1.7391,-2.5043,0.2086,1.5405,-4.2183,-84.7493,36.6599,290.41,51.045009,13.777306,117.45,3.91,1.74,3.5,1.88,3.0,9.0,6.0,41.06
230414,82804800,1398245287190.365,-0.7354,-0.0294,-9.5903,-1.1826,-2.0869,0.3478,1.1375,-4.1559,-84.7084,36.6599,290.41,51.045009,13.777306,117.45,3.91,1.74,3.5,1.88,3.0,9.0,6.0,41.06
230414,82804800,1398245287202.219,-0.6864,-0.3039,-9.1784,-0.626,-2.2956,0.2782,1.6397,-4.3469999999999995,-84.5937,36.6599,290.41,51.045009,13.777306,117.45,3.91,1.74,3.5,1.88,3.0,9.0,6.0,41.06
230414,82804800,1398245287216.79,-1.1079999999999999,-0.7648,-9.4628,-0.8347,-2.6434,0.0695,2.5083,-5.011,-84.3139,36.6599,290.41,51.045012,13.777292000000001,117.45,3.91,1.74,3.5,1.89,3.0,9.0,6.0,41.06
230414,82804900,1398245287241.804,-0.4608,-0.4903,-9.2471,-1.6695,-2.2956,0.0,2.4496,-4.4683,-84.1643,36.72,290.77,51.045012,13.777292000000001,117.45,3.91,1.74,3.5,1.89,3.0,9.0,6.0,41.06
230414,82804900,1398245287268.8909,-0.5197,-0.3922,-9.0902,-1.113,-2.3652,0.0695,2.5197,-4.5375,-83.9655,36.72,290.77,51.045012,13.777292000000001,117.45,3.91,1.74,3.5,1.89,3.0,9.0,6.0,41.06
230414,82804900,1398245287291.027,-0.6668,-0.5981,-9.6197,-0.9043,-2.0869,-0.2086,2.5729,-4.7404,-83.7303,36.72,290.77,51.045012,13.777292000000001,117.45,3.91,1.74,3.5,1.89,3.0,9.0,6.0,41.06
230414,82804900,1398245287310.397,-1.0002,-0.4903,-9.7668,-0.6956,-2.9217,-0.0695,2.1406,-5.1008,-83.5549,36.72,290.77,51.045012,13.777292000000001,117.45,3.91,1.74,3.5,1.89,3.0,9.0,6.0,41.06
230414,82804900,1398245287330.924,-0.5393,-0.6373,-9.1392,-0.3478,-1.8782,-0.2782,2.0755,-4.6966,-83.3067,36.72,290.77,51.045016,13.777277999999999,117.45,3.91,1.74,3.5,1.89,3.0,9.0,6.0,41.06
230414,82805000,1398245287347.104,-0.706,-0.3039,-8.8352,-0.1391,-2.226,-0.1391,1.8537,-5.0257,-83.0603,37.12,291.06,51.045016,13.777277999999999,117.43,3.91,1.74,3.5,1.89,3.0,9.0,6.0,41.06
230414,82805000,1398245287370.501,-0.4706,-0.3824,-10.1394,0.2086,-2.2956,-0.0695,1.8224,-4.8034,-82.8647,37.12,291.06,51.045016,13.777277999999999,117.43,3.91,1.74,3.5,1.89,3.0,9.0,6.0,41.06
230414,82805000,1398245287390.4,-0.4706,-0.9119,-9.6687,-0.3478,-1.8782,0.0,3.5119,-4.8679,-82.6206,37.12,291.06,51.045016,13.777277999999999,117.43,3.91,1.74,3.5,1.89,3.0,9.0,6.0,41.06
230414,82805000,1398245287401.605,-0.5785,-0.7746,-9.1392,-0.5565,-2.0173,0.2086,3.3617,-4.9135,-82.5503,37.12,291.06,51.045016,13.777277999999999,117.43,3.91,1.74,3.5,1.89,3.0,9.0,6.0,41.06
230414,82805000,1398245287428.944,-1.0296,-0.7256,-9.3647,-0.4869,-2.0173,0.0,2.7009,-5.5261,-82.4884,37.12,291.06,51.045019,13.777264,117.43,3.91,1.74,3.5,1.9,3.0,9.0,6.0,41.06
230414,82805100,1398245287442.615,-0.402,-0.6373,-9.1,-0.3478,-1.1826,0.0695,2.3767,-5.6014,-82.3474,37.69,291.2,51.045019,13.777264,117.41,3.91,1.74,3.5,1.9,3.0,9.0,6.0,41.06
230414,82805100,1398245287458.946,-0.6373,-0.4903,-9.5216,-0.6956,-1.5304,0.1391,2.3349,-4.9531,-82.3173,37.69,291.2,51.045019,13.777264,117.41,3.91,1.74,3.5,1.9,3.0,9.0,6.0,41.06
230414,82805100,1398245287480.252,-0.4608,-0.402,-9.6589,-0.9043,-1.7391,-0.0695,2.2414,-4.7087,-82.2822,37.69,291.2,51.045019,13.777264,117.41,3.91,1.74,3.5,1.9,3.0,9.0,6.0,41.06
230414,82805100,1398245287496.55,-0.4903,-0.7746,-9.2765,-0.7652,-1.8782,-0.0695,2.8680000000000003,-4.7727,-82.1877,37.69,291.2,51.045019,13.777264,117.41,3.91,1.74,3.5,1.9,3.0,9.0,6.0,41.06
230414,82805100,1398245287521.982,-0.6962,-0.4216,-8.8842,-1.1826,-1.5304,-0.0695,2.7356,-5.4038,-82.0481,37.69,291.2,51.045023,13.77725,117.41,3.91,1.74,3.5,1.9,3.0,9.0,6.0,41.06
230414,82805200,1398245287580.606,-0.7746,-0.402,-9.7962,-1.0434,-2.5739,-0.0695,2.0515,-4.6807,-81.9683,37.69,291.99,51.045023,13.77725,117.39,3.91,1.74,3.5,1.9,3.0,9.0,6.0,41.06
230414,82805200,1398245287596.26,-1.0884,-0.5687,-9.6197,-1.1826,-1.6,-0.0695,2.6398,-5.3611,-81.7833,37.69,291.99,51.045023,13.77725,117.39,3.91,1.74,3.5,1.9,3.0,9.0,6.0,41.06
230414,82805200,1398245287619.505,-0.6766,-0.2647,-10.0021,-1.0434,-1.9478,0.3478,1.5294,-4.5294,-81.8273,37.69,291.99,51.045023,13.77725,117.39,3.91,1.74,3.5,1.9,3.0,9.0,6.0,41.06
230414,82805200,1398245287630.3909,-1.2257,-0.5099,-9.9923,-0.9043,-2.9913,0.2086,1.7289,-5.0812,-81.8232,37.69,291.99,51.045023,13.77725,117.39,3.91,1.74,3.5,1.9,3.0,9.0,6.0,41.06
230414,82805200,1398245287652.122,-1.0688,-0.6373,-9.1,-1.2521,-2.0173,0.1391,2.4941,-5.582000000000001,-81.6206,37.69,291.99,51.045027000000005,13.777235999999998,117.39,3.91,1.74,3.5,1.9,3.0,9.0,6.0,41.06
230414,82805300,1398245287671.339,-0.5001,-0.098,-8.7273,-1.3217,-1.6,0.0,1.7208,-6.0067,-81.5971,38.22,291.91,51.045027000000005,13.777235999999998,117.38,3.91,1.74,3.5,1.9,3.0,9.0,6.0,41.06
230414,82805300,1398245287693.14,-1.1963,-0.402,-10.1492,-1.3217,-2.6434,0.2086,2.5606,-5.8956,-81.3559,38.22,291.91,51.045027000000005,13.777235999999998,117.38,3.91,1.74,3.5,1.9,3.0,9.0,6.0,41.06
230414,82805300,1398245287710.376,-1.1865,0.0,-10.1786,-1.3217,-2.226,0.0,1.6173,-5.4198,-81.3847,38.22,291.91,51.045027000000005,13.777235999999998,117.38,3.91,1.74,3.5,1.9,3.0,9.0,6.0,41.06
230414,82805300,1398245287722.25,-1.1079999999999999,0.0,-9.8746,-1.3217,-1.8782,0.0,1.2257,-5.647,-81.4444,38.22,291.91,51.045027000000005,13.777235999999998,117.38,3.91,1.74,3.5,1.9,3.0,9.0,6.0,41.06
230414,82805300,1398245287735.822,-1.3434,-0.2059,-9.7177,-1.3913,-2.3652,0.0,1.3661,-6.0653,-81.1858,38.22,291.91,51.04503,13.777222,117.38,3.91,1.74,3.5,1.91,3.0,9.0,6.0,41.06
230414,82805400,1398245287760.836,-0.9904,-0.2255,-9.2961,-1.2521,-1.3913,-0.1391,1.3,-5.7895,-81.0304,38.55,292.01,51.04503,13.777222,117.36,3.91,1.74,3.5,1.91,3.0,9.0,6.0,41.06
230414,82805400,1398245287775.1428,-1.0786,-0.0294,-10.3748,-1.4608,-1.8782,0.0695,1.4246,-5.4518,-80.854,38.55,292.01,51.04503,13.777222,117.36,3.91,1.74,3.5,1.91,3.0,9.0,6.0,41.06
230414,82805400,1398245287796.229,-0.8139,0.0784,-9.9139,-1.0434,-1.4608,0.1391,1.4914,-5.4428,-80.7903,38.55,292.01,51.04503,13.777222,117.36,3.91,1.74,3.5,1.91,3.0,9.0,6.0,41.06
230414,82805400,1398245287818.402,-1.1276,-0.0686,-10.0708,-1.7391,-1.8782,0.0695,1.7224,-5.3974,-80.6975,38.55,292.01,51.04503,13.777222,117.36,3.91,1.74,3.5,1.91,3.0,9.0,6.0,41.06
230414,82805400,1398245287830.83,-1.4611,0.1372,-10.3649,-1.6,-2.1565,0.0695,1.5662,-5.6198,-80.6943,38.55,292.01,51.045033000000004,13.777207999999998,117.36,3.91,1.74,3.5,1.91,3.0,9.0,6.0,41.06
230414,82805500,1398245287852.977,-1.3434,0.098,-10.0315,-1.8782,-1.6,0.1391,1.7499,-6.1224,-80.5929,38.86,292.18,51.045033000000004,13.777207999999998,117.35,3.91,1.74,3.5,1.91,3.0,9.0,6.0,41.06
230414,82805500,1398245287875.377,-0.6864,-0.049,-9.2569,-1.9478,-1.1826,0.1391,2.0908,-5.3332,-80.4693,38.86,292.18,51.045033000000004,13.777207999999998,117.35,3.91,1.74,3.5,1.91,3.0,9.0,6.0,41.06
230414,82805500,1398245287896.603,-1.3826,-0.3235,-10.4336,-1.0434,-2.7826,-0.0695,2.041,-5.7889,-80.4199,38.86,292.18,51.045033000000004,13.777207999999998,117.35,3.91,1.74,3.5,1.91,3.0,9.0,6.0,41.06
230414,82805500,1398245287915.232,-1.2355,0.0882,-9.7079,-2.0869,-1.5304,0.1391,1.8987,-5.7896,-80.3633,38.86,292.18,51.045033000000004,13.777207999999998,117.35,3.91,1.74,3.5,1.91,3.0,9.0,6.0,41.09
230414,82805500,1398245287938.979,-1.2061,0.1078,-10.5022,-1.3913,-2.0173,0.2782,1.2611,-6.1037,-80.575,38.86,292.18,51.045037,13.777194,117.35,3.91,1.74,3.5,1.91,3.0,9.0,6.0,41.09
230414,82805600,1398245287959.1592,-1.2257,0.2255,-9.5314,-1.0434,-0.9043,0.0695,1.153,-6.7002,-80.6113,38.9,292.66,51.045037,13.777194,117.35,3.91,1.74,3.5,1.91,3.0,9.0,6.0,41.09
230414,82805600,1398245287970.4438,-0.6177,0.1176,-10.1688,-0.9739,-1.113,0.1391,1.6031,-5.8534,-80.6803,38.9,292.66,51.045037,13.777194,117.35,3.91,1.74,3.5,1.91,3.0,9.0,6.0,41.09
230414,82805600,1398245287992.9758,-0.7158,-0.2451,-9.5412,-1.3913,-0.9043,0.1391,2.3369999999999997,-5.3838,-80.4834,38.9,292.66,51.045037,13.777194,117.35,3.91,1.74,3.5,1.91,3.0,9.0,6.0,41.09
230414,82805600,1398245288010.396,-0.7942,-0.147,-9.4824,-1.113,-1.4608,0.2782,2.2266,-5.3979,-80.3774,38.9,292.66,51.045037,13.777194,117.35,3.91,1.74,3.5,1.91,3.0,9.0,6.0,41.09
230414,82805600,1398245288023.9521,-1.2453,-0.1961,-9.757,-0.9739,-1.3913,0.3478,1.4153,-5.8175,-80.3353,38.9,292.66,51.045041,13.777179,117.35,3.91,1.74,3.5,1.91,3.0,9.0,6.0,41.09
230414,82805700,1398245288042.9338,-0.8237,-0.1961,-9.3353,-0.6956,-1.113,0.0695,1.4935,-5.7132,-80.1892,39.02,291.8,51.045041,13.777179,117.34,3.91,1.74,3.5,1.91,3.0,9.0,6.0,41.09
230414,82805700,1398245288057.918,-0.2255,-0.0882,-9.6393,-1.0434,-0.9043,0.2086,1.7245,-5.5294,-80.3519,39.02,291.8,51.045041,13.777179,117.34,3.91,1.74,3.5,1.91,3.0,9.0,6.0,41.09
230414,82805700,1398245288070.444,-0.8727,-0.1667,-9.7668,-1.0434,-1.0434,0.0695,2.0299,-6.3956,-80.3834,39.02,291.8,51.045041,13.777179,117.34,3.91,1.74,3.5,1.91,3.0,9.0,6.0,41.09
230414,82805700,1398245288090.376,-0.6864,0.1372,-9.806000000000001,-0.3478,-1.3217,0.0695,1.8477,-5.8253,-80.4822,39.02,291.8,51.045041,13.777179,117.34,3.91,1.74,3.5,1.91,3.0,9.0,6.0,41.09
230414,82805700,1398245288109.301,-0.2353,-0.2843,-9.2176,-0.9739,-0.9043,-0.0695,2.1483,-5.5191,-80.4098,39.02,291.8,51.045044,13.777165,117.34,3.91,1.74,3.5,1.91,3.0,9.0,6.0,41.09
230414,82805800,1398245288121.942,-0.5687,-0.2059,-9.7177,-0.7652,-1.3913,0.0695,2.2273,-5.1025,-80.3372,39.08,291.56,51.045044,13.777165,117.34,3.91,1.74,3.5,1.91,3.0,9.0,6.0,41.09
230414,82805800,1398245288135.315,-0.8433,0.5393,-8.237,0.0,-1.1826,-0.1391,-0.1336,-6.2947,-80.5139,39.08,291.56,51.045044,13.777165,117.34,3.91,1.74,3.5,1.91,3.0,9.0,6.0,41.09
230414,82805800,1398245288150.4731,0.3137,0.0784,-8.1292,1.2521,-0.626,-0.1391,-1.1121,-5.4405,-80.4828,39.08,291.56,51.045044,13.777165,117.34,3.91,1.74,3.5,1.91,3.0,9.0,6.0,41.09
230414,82805800,1398245288163.674,0.353,-0.402,-10.7572,1.1826,-0.9043,-0.2782,0.4159,-5.0903,-80.3917,39.08,291.56,51.045044,13.777165,117.34,3.91,1.74,3.5,1.91,3.0,9.0,6.0,41.09
230414,82805800,1398245288181.257,-0.3726,-1.0982,-10.5218,-0.8347,-2.5043,-0.0695,3.2543,-4.6479,-80.2027,39.08,291.56,51.045048,13.77715,117.34,3.91,1.74,3.5,1.91,3.0,9.0,6.0,41.09
230414,82805900,1398245288196.367,-0.5589,-1.1767,-8.9136,-1.9478,-2.4347,0.2782,5.3418,-5.2414,-80.0087,39.14,291.37,51.045048,13.77715,117.34,3.91,1.74,3.5,1.91,3.0,9.0,6.0,41.09
230414,82805900,1398245288215.27,-1.0394,-0.2451,-7.9429,-1.6,-1.9478,0.3478,3.2274,-6.1788,-80.1412,39.14,291.37,51.045048,13.77715,117.34,3.91,1.74,3.5,1.91,3.0,9.0,6.0,41.09
230414,82805900,1398245288232.065,-1.0688,-0.6177,-11.022,-1.8782,-3.4086,0.3478,2.5957,-5.5743,-80.2276,39.14,291.37,51.045048,13.77715,117.34,3.91,1.74,3.5,1.91,3.0,9.0,6.0,41.09
230414,82805900,1398245288250.9321,-0.0294,-0.1078,-9.3451,-1.6695,-2.3652,0.0695,2.4759,-4.4728,-80.2708,39.14,291.37,51.045048,13.77715,117.34,3.91,1.74,3.5,1.91,3.0,9.0,6.0,41.09
230414,82805900,1398245288270.931,-0.8629,-0.0392,-9.9335,-1.3913,-4.1043,0.1391,2.5508,-4.9622,-80.3503,39.14,291.37,51.045052,13.777135000000001,117.34,3.91,1.74,3.5,1.91,3.0,9.0,6.0,41.09
230414,82806000,1398245288291.421,-2.2848,-1.5591,-10.4336,-1.6,-4.5217,0.0,3.2075,-5.4121,-80.3425,39.24,291.33,51.045052,13.777135000000001,117.34,3.91,1.74,3.5,1.91,3.0,9.0,6.0,41.09
230414,82806000,1398245288309.083,-1.1473,0.0,-9.5412,-0.9043,-3.5478,0.1391,2.9234,-6.0803,-80.3509,39.24,291.33,51.045052,13.777135000000001,117.34,3.91,1.74,3.5,1.91,3.0,9.0,6.0,41.09
230414,82806000,1398245288321.2349,-1.3728,-0.2255,-8.8646,-1.113,-2.5739,0.0695,1.6435,-6.2737,-80.3659,39.24,291.33,51.045052,13.777135000000001,117.34,3.91,1.74,3.5,1.91,3.0,9.0,6.0,41.09
230414,82806000,1398245288335.316,-0.1078,0.3235,-10.1296,-0.5565,-3.6173,0.2782,0.1954,-4.5434,-80.6388,39.24,291.33,51.045052,13.777135000000001,117.34,3.91,1.74,3.5,1.91,3.0,9.0,6.0,41.09
230414,82806000,1398245288358.304,-0.4314,-0.0588,-9.2176,0.1391,-3.4086,0.4869,0.4872,-5.3008,-80.9111,39.24,291.33,51.045055,13.777121,117.34,3.91,1.74,3.5,1.91,3.0,9.0,6.0,41.09
230414,82806100,1398245288371.4631,-0.6668,-0.0882,-9.0215,-0.4173,-2.9217,0.0695,1.7566,-5.8653,-80.8143,39.3,291.64,51.045055,13.777121,117.33,3.91,1.74,3.5,1.91,3.0,9.0,6.0,41.09
230414,82806100,1398245288398.343,-2.02,-1.1963,-9.8648,-0.9043,-3.2,0.1391,3.4804,-6.8341,-80.6387,39.3,291.64,51.045055,13.777121,117.33,3.91,1.74,3.5,1.91,3.0,9.0,6.0,41.09
230414,82806100,1398245288408.2458,-1.6768,-0.5589,-9.6197,-1.9478,-1.4608,0.0,3.6715,-6.8435,-80.4616,39.3,291.64,51.045055,13.777121,117.33,3.91,1.74,3.5,1.91,3.0,9.0,6.0,41.09
230414,82806100,1398245288420.926,-0.098,-0.5589,-8.8744,-0.626,-1.3217,0.0,2.6029,-4.9478,-80.6241,39.3,291.64,51.045055,13.777121,117.33,3.91,1.74,3.5,1.91,3.0,9.0,6.0,41.09
230414,82806100,1398245288435.922,-1.9121,-0.7158,-9.9433,-0.9043,-3.1304,-0.2086,3.1863,-6.0855,-80.6161,39.3,291.64,51.045059,13.777106,117.33,3.91,1.74,3.5,1.91,3.0,9.0,6.0,41.09
230414,82806200,1398245288459.028,-1.9121,-1.5297,-9.6883,-2.6434,-1.3913,0.0695,2.9749,-5.9368,-80.6067,39.39,291.81,51.045059,13.777106,117.33,3.91,1.74,3.5,1.91,3.0,9.0,6.0,41.09
230414,82806200,1398245288470.426,-0.7648,-1.0198,-10.3355,-2.4347,-2.0869,0.2086,3.6678,-6.0457,-80.4527,39.39,291.81,51.045059,13.777106,117.33,3.91,1.74,3.5,1.91,3.0,9.0,6.0,41.09
230414,82806200,1398245288492.1428,-1.5395,-1.2943,-9.9237,-2.7826,-2.1565,0.4173,3.9585,-5.3232,-80.3376,39.39,291.81,51.045059,13.777106,117.33,3.91,1.74,3.5,1.91,3.0,9.0,6.0,41.09
230414,82806200,1398245288509.78,-0.5687,-0.4804,-10.2669,-1.3217,-2.7826,0.3478,3.1292,-4.8262,-80.4702,39.39,291.81,51.045059,13.777106,117.33,3.91,1.74,3.5,1.91,3.0,9.0,6.0,41.09
230414,82806200,1398245288530.886,-1.9121,-0.8727,-9.8844,-2.7826,-2.5043,0.5565,3.0875,-5.9175,-80.6006,39.39,291.81,51.045063,13.777091,117.33,3.91,1.74,3.5,1.91,3.0,9.0,6.0,41.09
230414,82806300,1398245288545.2642,-0.9315,-0.1274,-10.3944,-3.3391,-1.1826,0.4869,2.1275,-5.5826,-80.7743,39.49,291.6,51.045063,13.777091,117.32,3.91,1.74,3.5,1.91,3.0,9.0,6.0,41.09
230414,82806300,1398245288569.408,-1.4709,0.2745,-10.0806,-2.3652,-1.8782,0.3478,1.4064,-6.4727,-80.9544,39.49,291.6,51.045063,13.777091,117.32,3.91,1.74,3.5,1.91,3.0,9.0,6.0,41.09
230414,82806300,1398245288591.2742,-0.1372,-0.2059,-9.7472,-1.5304,-0.5565,0.4173,1.6551,-4.8817,-80.9116,39.49,291.6,51.045063,13.777091,117.32,3.91,1.74,3.5,1.91,3.0,9.0,6.0,41.09
230414,82806300,1398245288610.292,-0.804,0.147,-9.9237,-1.2521,-0.5565,0.4173,1.1786,-5.4116,-81.0749,39.49,291.6,51.045063,13.777091,117.32,3.91,1.74,3.5,1.91,3.0,9.0,6.0,41.09
230414,82806300,1398245288627.0908,-0.402,0.4608,-10.5807,-2.2956,-0.5565,0.626,1.1084,-4.9393,-81.1895,39.49,291.6,51.045066999999996,13.777076999999998,117.32,3.91,1.74,3.5,1.92,3.0,9.0,6.0,41.09
230414,82806400,1398245288645.7168,-1.1276,-0.0392,-10.1002,-1.6695,-1.5304,0.4173,1.5592,-5.3359,-81.3187,39.56,291.41,51.045066999999996,13.777076999999998,117.31,3.91,1.74,3.5,1.92,3.0,9.0,6.0,41.09
230414,82806400,1398245288661.5542,-0.3628,-0.2353,-9.0411,-1.1826,-0.5565,0.626,1.8313,-5.2483,-81.3425,39.56,291.41,51.045066999999996,13.777076999999998,117.31,3.91,1.74,3.5,1.92,3.0,9.0,6.0,41.09
230414,82806400,1398245288677.492,-0.049,-0.706,-8.8352,-0.7652,-0.9739,0.5565,2.6246,-4.7078,-81.413,39.56,291.41,51.045066999999996,13.777076999999998,117.31,3.91,1.74,3.5,1.92,3.0,9.0,6.0,41.09
230414,82806400,1398245288690.3708,-0.5001,-0.1961,-9.1686,-0.626,-0.8347,0.5565,2.6416,-5.392,-81.5271,39.56,291.41,51.045066999999996,13.777076999999998,117.31,3.91,1.74,3.5,1.92,3.0,9.0,6.0,41.09
230414,82806400,1398245288710.895,-0.0294,-0.2059,-9.0313,-0.5565,-1.0434,0.4173,2.51,-5.0817,-81.5232,39.56,291.41,51.04507,13.777061999999999,117.31,3.91,1.74,3.5,1.92,3.0,9.0,6.0,41.09
230414,82806500,1398245288738.6838,-0.3922,-0.0588,-9.453,-0.2086,-1.6695,0.3478,2.3341,-4.9385,-81.5994,39.65,291.31,51.04507,13.777061999999999,117.3,3.91,1.74,3.5,1.92,3.0,9.0,6.0,41.09
230414,82806500,1398245288751.574,-0.5589,-0.147,-9.7177,-0.2782,-1.7391,0.5565,2.4735,-5.4434,-81.6297,39.65,291.31,51.04507,13.777061999999999,117.3,3.91,1.74,3.5,1.92,3.0,9.0,6.0,41.09
230414,82806500,1398245288770.467,-0.8531,-0.0392,-9.7177,0.2086,-2.3652,0.4173,1.9752,-4.9961,-81.5956,39.65,291.31,51.04507,13.777061999999999,117.3,3.91,1.74,3.5,1.92,3.0,9.0,6.0,41.09
230414,82806500,1398245288785.614,-0.8335,-0.4412,-9.3647,0.2086,-2.713,0.626,2.4771,-4.295,-81.5109,39.65,291.31,51.04507,13.777061999999999,117.3,3.91,1.74,3.5,1.92,3.0,9.0,6.0,41.09
230414,82806500,1398245288801.492,-1.2061,-0.5589,-9.3353,0.1391,-2.5043,0.6956,2.7204,-5.3274,-81.4301,39.65,291.31,51.045074,13.777047,117.3,3.91,1.74,3.5,1.92,3.0,9.0,6.0,41.09
230414,82806600,1398245288816.323,-0.9315,-0.8433,-9.4236,-0.3478,-2.0869,0.5565,3.3471,-4.8393,-81.354,40.1599,291.7,51.045074,13.777047,117.3,3.91,1.74,3.5,1.92,3.0,9.0,6.0,41.09
230414,82806600,1398245288835.312,-1.3826,-1.0296,-9.9531,-0.9043,-3.2,0.6956,3.6707,-5.6053,-81.493,40.1599,291.7,51.045074,13.777047,117.3,3.91,1.74,3.5,1.92,3.0,9.0,6.0,41.09
230414,82806600,1398245288851.1208,-1.3924,-0.5687,-9.198,-1.113,-1.113,0.8347,2.8179,-5.8682,-81.5882,40.1599,291.7,51.045074,13.777047,117.3,3.91,1.74,3.5,1.92,3.0,9.0,6.0,41.09
230414,82806600,1398245288870.454,-1.2453,-0.5687,-10.5611,-0.5565,-2.9913,0.6956,2.458,-5.7799,-81.7107,40.1599,291.7,51.045074,13.777047,117.3,3.91,1.74,3.5,1.92,3.0,9.0,6.0,41.09
230414,82806600,1398245288909.145,-1.0002,-0.9806,-9.8844,-1.3913,-2.0869,0.7652,3.4245,-5.5478,-81.4914,40.1599,291.7,51.045079,13.777032,117.3,3.91,1.74,3.5,1.92,3.0,9.0,6.0,41.09
230414,82806700,1398245288920.8691,-1.1963,-0.7942,-10.6493,-1.4608,-3.1304,0.9043,3.056,-4.9844,-81.4816,40.17,291.65,51.045079,13.777032,117.3,3.91,1.74,3.5,1.92,3.0,9.0,6.0,41.09
230414,82806700,1398245288935.385,-1.5591,-0.9217,-10.2865,-0.6956,-2.7826,0.7652,3.0615,-5.301,-81.441,40.17,291.65,51.045079,13.777032,117.3,3.91,1.74,3.5,1.92,3.0,9.0,6.0,41.09
230414,82806700,1398245288954.5042,-0.5883,-0.3628,-9.8648,-1.113,-2.5043,0.7652,2.8348,-4.3692,-81.3917,40.17,291.65,51.045079,13.777032,117.3,3.91,1.74,3.5,1.92,3.0,9.0,6.0,41.09
230414,82806700,1398245288970.489,-0.8531,-0.1961,-9.8844,-1.3217,-2.226,0.6956,2.2582,-4.5244,-81.3961,40.17,291.65,51.045079,13.777032,117.3,3.91,1.74,3.5,1.92,3.0,9.0,6.0,41.09
230414,82806700,1398245288998.8862,-0.5393,-0.5785,-9.6589,-1.2521,-1.4608,0.626,3.0077,-4.3823,-81.2723,40.17,291.65,51.045082,13.777017,117.3,1.74,1.45,0.96,1.92,3.0,9.0,6.0,41.09
230414,82806800,1398245289011.364,-0.4608,-0.5883,-9.6589,-1.2521,-1.1826,0.7652,3.4937,-4.6982,-81.1954,40.46,291.04,51.045082,13.777017,117.3,1.74,1.45,0.96,1.92,3.0,9.0,6.0,41.09
230414,82806800,1398245289032.1418,-0.2941,-0.4706,-9.6099,-1.3217,-1.4608,0.7652,3.4453,-4.9139,-81.1189,40.46,291.04,51.045082,13.777017,117.3,1.74,1.45,0.96,1.92,3.0,9.0,6.0,41.09
230414,82806800,1398245289050.2852,-0.706,-0.4804,-9.1784,-1.6695,-1.0434,0.7652,3.2633,-4.9774,-81.0721,40.46,291.04,51.045082,13.777017,117.3,1.74,1.45,0.96,1.92,3.0,9.0,6.0,41.09
230414,82806800,1398245289070.365,-0.755,-0.0392,-9.3353,-1.113,-1.2521,0.6956,2.4964,-5.0487,-81.1076,40.46,291.04,51.045082,13.777017,117.3,1.74,1.45,0.96,1.92,3.0,9.0,6.0,41.09
230414,82806800,1398245289099.011,-1.1571,-0.2745,-9.3843,-0.3478,-2.2956,0.626,2.3718,-5.3215,-81.0869,40.46,291.04,51.045086,13.777002,117.3,1.74,1.45,0.96,1.91,3.0,9.0,6.0,41.09
230414,82806900,1398245289111.339,-1.0786,-0.4608,-9.2667,-0.5565,-1.6695,0.5565,2.668,-5.0434,-81.0364,40.93,291.91,51.045086,13.777002,117.24,1.74,1.45,0.96,1.91,3.0,9.0,6.0,41.09
230414,82806900,1398245289132.147,-1.0198,-0.3137,-9.4726,-0.0695,-2.5739,0.5565,2.0632,-4.8841,-81.0709,40.93,291.91,51.045086,13.777002,117.24,1.74,1.45,0.96,1.91,3.0,9.0,6.0,41.09
230414,82806900,1398245289151.195,-1.3826,-0.5883,-9.7766,-0.5565,-2.5043,0.4869,2.4155,-4.7076,-81.089,40.93,291.91,51.045086,13.777002,117.24,1.74,1.45,0.96,1.91,3.0,9.0,6.0,41.09
230414,82806900,1398245289170.521,-1.1178,-0.8727,-9.8746,-0.8347,-2.3652,0.6956,3.3205,-5.3831,-81.0559,40.93,291.91,51.045086,13.777002,117.24,1.74,1.45,0.96,1.91,3.0,9.0,6.0,41.09
230414,82806900,1398245289190.848,-1.0296,-0.8237,-10.2375,-1.1826,-2.9217,0.626,3.4359,-5.0197,-81.0711,40.93,291.91,51.04509,13.776987,117.24,3.91,1.74,3.5,1.92,3.0,9.0,6.0,41.09
230414,82807000,1398245289211.394,-1.314,-0.9119,-10.0315,-1.5304,-3.2695,0.7652,3.3284,-5.1179,-81.1108,41.54,291.08,51.04509,13.776987,117.27,3.91,1.74,3.5,1.92,3.0,9.0,6.0,41.09
230414,82807000,1398245289230.418,-0.7746,-0.6177,-10.3453,-1.8086,-2.8521,0.8347,3.153,-4.8079,-81.0889,41.54,291.08,51.04509,13.776987,117.27,3.91,1.74,3.5,1.92,3.0,9.0,6.0,41.09
230414,82807000,1398245289241.5159,-1.5199,-0.5197,-11.0612,-1.7391,-3.8956,0.8347,3.0204,-4.7869,-81.1436,41.54,291.08,51.04509,13.776987,117.27,3.91,1.74,3.5,1.92,3.0,9.0,6.0,41.09
230414,82807000,1398245289259.102,-0.6962,-0.4314,-10.5709,-2.226,-2.713,0.8347,3.2113,-5.0064,-81.0793,41.54,291.08,51.04509,13.776987,117.27,3.91,1.74,3.5,1.92,3.0,9.0,6.0,41.09
230414,82807000,1398245289278.094,-0.3334,-0.402,-9.4922,-1.2521,-2.3652,0.4869,2.7539999999999996,-4.9901,-81.0925,41.54,291.08,51.045093,13.776971,117.27,3.91,1.74,3.5,1.92,3.0,9.0,6.0,41.09
230414,82807100,1398245289298.866,-0.5785,-0.6275,-9.6393,-1.3913,-2.1565,0.6956,3.1571,-5.5344,-81.1368,41.67,290.92,51.045093,13.776971,117.25,3.91,1.74,3.5,1.92,3.0,9.0,6.0,41.09
230414,82807100,1398245289313.57,-0.3628,-0.5687,-9.6785,-1.3913,-2.2956,0.7652,3.5389999999999997,-5.5922,-81.1504,41.67,290.92,51.045093,13.776971,117.25,3.91,1.74,3.5,1.92,3.0,9.0,6.0,41.09
230414,82807100,1398245289330.3909,-0.8923,-0.0294,-10.0806,-0.8347,-2.4347,0.8347,2.4528,-5.9976,-81.3026,41.67,290.92,51.045093,13.776971,117.25,3.91,1.74,3.5,1.92,3.0,9.0,6.0,41.09
230414,82807100,1398245289341.4858,-0.7648,-0.5785,-8.7666,-1.1826,-2.1565,0.6956,4.0313,-5.6953,-81.031,41.67,290.92,51.045093,13.776971,117.25,3.91,1.74,3.5,1.92,3.0,9.0,6.0,41.09
230414,82807100,1398245289370.0571,-1.0884,-0.3235,-10.0021,-1.3913,-1.6695,0.9739,3.5757,-5.5122,-81.0025,41.67,290.92,51.045097,13.776956,117.25,3.91,1.74,3.5,1.92,3.0,9.0,6.0,41.09
230414,82807200,1398245289391.3909,-1.5101,-0.3824,-9.6589,-1.113,-2.4347,0.9739,2.9815,-6.042999999999999,-80.9683,42.35,291.05,51.045097,13.776956,117.23,3.91,1.74,3.5,1.92,3.0,9.0,6.0,41.09
230414,82807200,1398245289410.3792,-1.412,-0.8335,-9.0509,-1.0434,-1.7391,1.113,3.4213,-5.812,-80.8644,42.35,291.05,51.045097,13.776956,117.23,3.91,1.74,3.5,1.92,3.0,9.0,6.0,41.09
230414,82807200,1398245289421.555,-1.5591,-0.4216,-9.2372,-0.7652,-1.7391,0.9739,2.6408,-6.5552,-80.8297,42.35,291.05,51.045097,13.776956,117.23,3.91,1.74,3.5,1.92,3.0,9.0,6.0,41.09
230414,82807200,1398245289435.446,-1.1178,-0.657,-9.4922,-0.7652,-1.9478,0.9043,2.2771,-5.3692,-80.7292,42.35,291.05,51.045097,13.776956,117.23,3.91,1.74,3.5,1.92,3.0,9.0,6.0,41.09
230414,82807200,1398245289455.0479,-0.8139,-0.2255,-9.5216,-0.7652,-2.0173,0.8347,2.4179,-5.2769,-80.6437,42.35,291.05,51.045101,13.77694,117.23,3.91,1.74,3.5,1.92,3.0,9.0,6.0,41.09
230414,82807300,1398245289480.635,-0.8531,-0.5099,-9.7374,-0.9043,-1.4608,0.626,2.8001,-5.7513,-80.6439,42.45,291.18,51.045101,13.77694,117.2,3.91,1.74,3.5,1.92,3.0,9.0,6.0,41.09
230414,82807300,1398245289495.418,-0.6373,-1.0786,-9.1784,-1.8086,-1.1826,0.9739,4.4001,-5.5616,-80.5613,42.45,291.18,51.045101,13.77694,117.2,3.91,1.74,3.5,1.92,3.0,9.0,6.0,41.09
230414,82807300,1398245289506.222,-0.8531,-0.4706,-10.2277,-1.7391,-0.9043,0.9739,3.5321,-5.8784,-80.6743,42.45,291.18,51.045101,13.77694,117.2,3.91,1.74,3.5,1.92,3.0,9.0,6.0,41.09
230414,82807300,1398245289520.554,-0.0196,0.0784,-9.0215,-1.3913,-0.2782,0.8347,2.6162,-5.6857,-80.7773,42.45,291.18,51.045101,13.77694,117.2,3.91,1.74,3.5,1.92,3.0,9.0,6.0,41.09
230414,82807300,1398245289535.951,-0.3039,-0.402,-9.8158,-1.3913,-1.6695,0.9739,3.6576,-5.4169,-80.7121,42.45,291.18,51.045103999999995,13.776925,117.2,3.91,1.74,3.5,1.92,3.0,9.0,6.0,41.09
230414,82807400,1398245289556.3071,-0.9904,0.098,-10.1884,-1.0434,-1.5304,0.7652,2.3771,-5.9754,-80.8614,43.02,291.5,51.045103999999995,13.776925,117.19,3.91,1.74,3.5,1.92,3.0,9.0,6.0,41.09
230414,82807400,1398245289578.011,-1.9023,-0.4903,-10.158999999999999,-0.626,-1.6,0.8347,2.4672,-6.1287,-80.9478,43.02,291.5,51.045103999999995,13.776925,117.19,3.91,1.74,3.5,1.92,3.0,9.0,6.0,41.09
230414,82807400,1398245289595.367,-1.2649,-0.8237,-9.5707,-1.7391,-1.5304,0.9043,3.2888,-5.8788,-80.9036,43.02,291.5,51.045103999999995,13.776925,117.19,3.91,1.74,3.5,1.92,3.0,9.0,6.0,41.09
230414,82807400,1398245289610.392,-0.5589,-0.6668,-9.3451,-0.626,-1.1826,0.5565,3.0018,-5.0232,-80.9782,43.02,291.5,51.045103999999995,13.776925,117.19,3.91,1.74,3.5,1.92,3.0,9.0,6.0,41.09
230414,82807400,1398245289630.905,-0.9511,-0.7158,-9.9237,-0.9739,-2.5739,0.7652,3.1828,-5.0894,-81.0675,43.02,291.5,51.045108,13.776909,117.19,3.91,1.74,3.5,1.92,3.0,9.0,6.0,41.09
230414,82807500,1398245289650.5671,-0.9511,-0.2941,-9.8844,-0.9043,-2.713,0.9739,2.3878,-5.2259,-81.2588,43.07,291.37,51.045108,13.776909,117.18,3.91,1.74,3.5,1.92,3.0,9.0,6.0,41.09
230414,82807500,1398245289670.471,-1.1865,-0.7158,-10.9141,-0.626,-4.0347,0.9043,2.9733,-5.5897,-81.292,43.07,291.37,51.045108,13.776909,117.18,3.91,1.74,3.5,1.92,3.0,9.0,6.0,41.09
230414,82807500,1398245289690.383,-0.3824,-0.7452,-9.8452,-1.6695,-2.7826,1.113,3.8362,-4.5108,-81.3367,43.07,291.37,51.045108,13.776909,117.18,3.91,1.74,3.5,1.92,3.0,9.0,6.0,41.09
230414,82807500,1398245289701.447,-0.6962,-0.3726,-9.6883,-1.0434,-2.9217,0.9739,2.8683,-5.9751,-81.49,43.07,291.37,51.045108,13.776909,117.18,3.91,1.74,3.5,1.92,3.0,9.0,6.0,41.15
230414,82807500,1398245289719.72,-0.706,-0.147,-8.9921,-1.4608,-2.5739,0.9043,2.1052,-6.1538,-81.5341,43.07,291.37,51.045111999999996,13.776893,117.18,3.91,1.74,3.5,1.92,3.0,9.0,6.0,41.15
230414,82807600,1398245289736.4,-1.2257,-0.2941,-9.8158,-0.8347,-3.3391,0.6956,2.2653,-6.3357,-81.54,42.4099,290.25,51.045111999999996,13.776893,117.17,3.91,1.74,3.5,1.92,3.0,9.0,6.0,41.15
230414,82807600,1398245289759.1902,-1.9514,-0.5001,-9.6295,-1.4608,-3.2695,0.7652,3.3304,-6.4802,-81.3682,42.4099,290.25,51.045111999999996,13.776893,117.17,3.91,1.74,3.5,1.92,3.0,9.0,6.0,41.15
230414,82807600,1398245289772.046,-1.5983,-0.4706,-10.3649,-1.1826,-2.713,0.626,3.3571,-6.2196,-81.3843,42.4099,290.25,51.045111999999996,13.776893,117.17,3.91,1.74,3.5,1.92,3.0,9.0,6.0,41.15
230414,82807600,1398245289790.349,-1.7062,-0.4314,-9.3353,-2.3652,-1.3217,0.7652,2.9758,-7.2111,-81.4352,42.4099,290.25,51.045111999999996,13.776893,117.17,3.91,1.74,3.5,1.92,3.0,9.0,6.0,41.15
230414,82807600,1398245289807.5679,-0.8825,-0.5981,-9.3647,-1.7391,-2.0869,0.626,3.4897,-6.1062,-81.2708,42.4099,290.25,51.045116,13.776876999999999,117.17,3.91,1.74,3.5,1.92,3.0,9.0,6.0,41.15
230414,82807700,1398245289821.2769,-1.2649,-0.3824,-9.7079,-2.3652,-2.0869,0.7652,2.3221,-6.1282,-81.4014,42.52,291.27,51.045116,13.776876999999999,117.18,3.91,1.74,3.5,1.92,3.0,9.0,6.0,41.15
230414,82807700,1398245289840.065,-0.9904,-0.6668,-10.8062,-2.0869,-1.3913,0.6956,2.2007,-5.6341,-81.4693,42.52,291.27,51.045116,13.776876999999999,117.18,3.91,1.74,3.5,1.92,3.0,9.0,6.0,41.15
230414,82807700,1398245289876.704,-0.6373,-0.353,-9.4726,-1.8086,-1.0434,0.5565,2.2709,-5.4644,-81.5201,42.52,291.27,51.045116,13.776876999999999,117.18,3.91,1.74,3.5,1.92,3.0,9.0,6.0,41.15
230414,82807700,1398245290069.233,-0.2843,0.049,-9.1686,-1.8086,-0.5565,0.3478,1.755,-5.9879,-81.5948,42.52,291.27,51.045116,13.776876999999999,117.18,3.91,1.74,3.5,1.92,3.0,9.0,6.0,41.15
230414,82807700,1398245290093.6538,-0.7158,-0.2059,-9.7668,-1.8086,-1.0434,0.2782,1.4736,-5.8579,-81.566,42.52,291.27,51.045120000000004,13.776860999999998,117.18,1.74,1.45,0.96,1.92,3.0,9.0,6.0,41.15
230414,82807800,1398245290113.707,-0.8629,0.0294,-9.5216,-0.9043,-1.6,0.3478,0.7535,-5.3133,-81.6743,43.04,290.65,51.045120000000004,13.776860999999998,117.19,1.74,1.45,0.96,1.92,3.0,9.0,6.0,41.15
230414,82807800,1398245290130.3909,-1.0002,-0.4804,-8.8352,-1.113,-0.9739,0.1391,2.0648,-5.0487,-81.5784,43.04,290.65,51.045120000000004,13.776860999999998,117.19,1.74,1.45,0.96,1.92,3.0,9.0,6.0,41.15
230414,82807800,1398245290141.636,-1.4905,-0.3039,-10.158999999999999,-1.3913,-1.9478,0.1391,1.5793,-5.5373,-81.6686,43.04,290.65,51.045120000000004,13.776860999999998,117.19,1.74,1.45,0.96,1.92,3.0,9.0,6.0,41.15
230414,82807800,1398245290155.64,-1.1865,-0.6177,-9.8943,-1.7391,-1.113,0.0,2.1279,-5.5187,-81.6258,43.04,290.65,51.045120000000004,13.776860999999998,117.19,1.74,1.45,0.96,1.92,3.0,9.0,6.0,41.15
230414,82807800,1398245290175.999,-1.2845,-0.4412,-9.7766,-2.2956,-2.3652,0.0695,2.1093,-5.4413,-81.6261,43.04,290.65,51.045123,13.776845000000002,117.19,3.91,1.74,3.5,1.92,3.0,9.0,6.0,41.15
230414,82807900,1398245290200.902,-0.3432,-0.1274,-9.1294,-1.8086,-1.6,0.0695,0.8645,-4.8122,-81.7419,42.95,290.6,51.045123,13.776845000000002,117.21,3.91,1.74,3.5,1.92,3.0,9.0,6.0,41.15
230414,82807900,1398245290215.6392,-0.5001,-0.5785,-9.7177,-0.7652,-1.4608,-0.1391,1.0905,-5.3419,-81.7939,42.95,290.6,51.045123,13.776845000000002,117.21,3.91,1.74,3.5,1.92,3.0,9.0,6.0,41.15
230414,82807900,1398245290230.364,-0.3922,-0.0098,-10.2375,-1.2521,-1.6695,-0.0695,1.2904,-4.9434,-81.9177,42.95,290.6,51.045123,13.776845000000002,117.21,3.91,1.74,3.5,1.92,3.0,9.0,6.0,41.15
230414,82807900,1398245290241.6409,-0.402,0.0686,-9.8158,-1.0434,-2.0869,-0.2086,0.7912,-5.2019,-82.1232,42.95,290.6,51.045123,13.776845000000002,117.21,3.91,1.74,3.5,1.92,3.0,9.0,6.0,41.15
230414,82807900,1398245290260.9658,-1.2845,-0.0882,-9.0019,-1.0434,-2.0869,-0.1391,1.5516,-6.4547,-82.1559,42.95,290.6,51.045127,13.776829000000001,117.21,3.91,1.74,3.5,1.92,3.0,9.0,6.0,41.15
230414,82808000,1398245290276.525,-1.0786,-0.049,-10.1492,-0.6956,-2.0173,-0.1391,1.114,-6.2995,-82.2961,42.93,290.23,51.045127,13.776829000000001,117.22,3.91,1.74,3.5,1.92,3.0,9.0,6.0,41.15
230414,82808000,1398245290295.502,-1.6179,-0.9021,-10.0021,-0.9043,-2.4347,-0.0695,2.2831,-6.2708,-82.2837,42.93,290.23,51.045127,13.776829000000001,117.22,3.91,1.74,3.5,1.92,3.0,9.0,6.0,41.15
230414,82808000,1398245290353.9958,-0.7648,-0.657,-10.6395,-1.1826,-2.713,0.1391,2.354,-5.2242,-82.4559,42.93,290.23,51.045127,13.776829000000001,117.22,3.91,1.74,3.5,1.92,3.0,9.0,6.0,41.15
230414,82808000,1398245290370.482,-1.1276,0.0196,-9.0215,-1.0434,-1.9478,0.0,0.8907,-5.939,-82.7005,42.93,290.23,51.045127,13.776829000000001,117.22,3.91,1.74,3.5,1.92,3.0,9.0,6.0,41.15
230414,82808000,1398245290390.88,-0.2647,-0.1667,-9.6785,-1.1826,-1.9478,-0.1391,1.3994,-5.6814,-82.6887,42.93,290.23,51.045131,13.776813,117.22,3.91,1.74,3.5,1.92,3.0,9.0,6.0,41.15
230414,82808100,1398245290411.374,-0.4314,-0.2059,-9.9629,-1.113,-1.7391,0.0695,1.992,-5.8202,-82.6716,42.82,289.95,51.045131,13.776813,117.24,3.91,1.74,3.5,1.92,3.0,9.0,6.0,41.15
230414,82808100,1398245290426.0159,-0.2059,-0.049,-9.453,-1.113,-2.0173,-0.1391,1.3176,-5.4438,-82.9325,42.82,289.95,51.045131,13.776813,117.24,3.91,1.74,3.5,1.92,3.0,9.0,6.0,41.15
230414,82808100,1398245290469.0051,-0.8825,-0.5687,-9.404,-0.7652,-2.3652,-0.0695,2.1673,-6.0046,-83.0881,42.82,289.95,51.045131,13.776813,117.24,3.91,1.74,3.5,1.92,3.0,9.0,6.0,41.15
230414,82808100,1398245290478.42,-1.4512,0.2157,-8.9333,-1.2521,-2.0869,-0.1391,1.6741,-6.7116,-83.3452,42.82,289.95,51.045131,13.776813,117.24,3.91,1.74,3.5,1.92,3.0,9.0,6.0,41.15
230414,82808100,1398245290511.6208,-2.1671,-0.6177,-10.2571,-0.4869,-1.9478,-0.1391,1.5748,-6.3646,-83.5185,42.82,289.95,51.045134000000004,13.776797,117.24,3.91,1.74,3.5,1.92,3.0,9.0,6.0,41.15
230414,82808200,1398245290527.802,-0.804,0.1274,-10.208,-0.9043,-2.1565,-0.2086,1.2473,-5.8204,-83.7269,42.8,289.9,51.045134000000004,13.776797,117.26,3.91,1.74,3.5,1.92,3.0,9.0,6.0,41.15
230414,82808200,1398245290550.955,-1.0002,-0.5687,-10.5905,-0.9739,-2.226,-0.2086,1.597,-5.4912,-83.9245,42.8,289.9,51.045134000000004,13.776797,117.26,3.91,1.74,3.5,1.92,3.0,9.0,6.0,41.15
230414,82808200,1398245290562.729,0.1176,-0.706,-9.0313,-1.2521,-1.9478,-0.2086,2.7009,-4.7397,-84.0089,42.8,289.9,51.045134000000004,13.776797,117.26,3.91,1.74,3.5,1.92,3.0,9.0,6.0,41.15
230414,82808200,1398245290580.501,0.1372,-0.5491,-9.198,-1.0434,-1.5304,-0.2782,2.5338,-5.6654,-84.1515,42.8,289.9,51.045134000000004,13.776797,117.26,3.91,1.74,3.5,1.92,3.0,9.0,6.0,41.15
230414,82808200,1398245290609.65,-0.0294,-0.1176,-8.7862,-1.3217,-1.0434,-0.4173,1.7662,-5.3692,-84.4067,42.8,289.9,51.045138,13.776779999999999,117.26,3.91,1.74,3.5,1.92,3.0,9.0,6.0,41.15
230414,82808300,1398245290628.865,-0.7942,-0.049,-10.0904,-1.4608,-2.713,-0.4173,1.1119,-5.7911,-84.7232,43.18,289.68,51.045138,13.776779999999999,117.27,3.91,1.74,3.5,1.92,3.0,9.0,6.0,41.15
230414,82808300,1398245290640.289,-0.9119,-0.2647,-9.7472,-1.3217,-2.713,-0.2086,1.5312,-5.4827,-84.9441,43.18,289.68,51.045138,13.776779999999999,117.27,3.91,1.74,3.5,1.92,3.0,9.0,6.0,41.15
230414,82808300,1398245290656.252,-1.2845,-0.402,-9.9629,-1.113,-2.4347,-0.4869,1.7463,-5.9510000000000005,-84.9631,43.18,289.68,51.045138,13.776779999999999,117.27,3.91,1.74,3.5,1.92,3.0,9.0,6.0,41.15
230414,82808300,1398245290670.4429,-1.2649,-0.4804,-10.3453,-1.7391,-3.0608,-0.3478,2.3228,-5.9639,-84.9437,43.18,289.68,51.045138,13.776779999999999,117.27,3.91,1.74,3.5,1.92,3.0,9.0,6.0,41.15
230414,82808300,1398245290709.988,-0.6177,-0.5099,-9.7668,-2.226,-2.7826,-0.2086,2.3774,-4.7629,-85.0382,43.18,289.68,51.045142,13.776764000000002,117.27,3.91,1.74,3.5,1.92,3.0,9.0,6.0,41.15
230414,82808400,1398245290723.116,-0.5491,-0.3432,-9.2471,-1.8086,-2.4347,-0.4173,1.8283,-5.136,-85.1512,43.08,290.07,51.045142,13.776764000000002,117.28,3.91,1.74,3.5,1.92,3.0,9.0,6.0,41.15
230414,82808400,1398245290736.71,-0.3726,-0.098,-9.3549,-1.5304,-1.7391,-0.2086,1.3144,-5.1446,-85.2528,43.08,290.07,51.045142,13.776764000000002,117.28,3.91,1.74,3.5,1.92,3.0,9.0,6.0,41.15
230414,82808400,1398245290750.3708,-0.7746,-0.1078,-9.1392,-0.7652,-1.5304,-0.3478,0.7159,-5.9552,-85.4166,43.08,290.07,51.045142,13.776764000000002,117.28,3.91,1.74,3.5,1.92,3.0,9.0,6.0,41.15
230414,82808400,1398245290770.448,-1.3042,-0.2255,-9.6197,-0.9043,-2.0173,-0.2782,1.2148,-5.631,-85.3988,43.08,290.07,51.045142,13.776764000000002,117.28,3.91,1.74,3.5,1.92,3.0,9.0,6.0,41.15
230414,82808400,1398245290798.803,-1.5493,-0.3137,-9.6491,-1.3913,-1.8782,-0.3478,1.8475,-5.6384,-85.2822,43.08,290.07,51.045146,13.776747,117.28,3.91,1.74,3.5,1.92,3.0,9.0,6.0,41.15
230414,82808500,1398245290816.5671,-0.9511,-0.5197,-10.1688,-1.5304,-2.226,-0.1391,1.9938,-4.5396,-85.2338,43.6,289.73,51.045146,13.776747,117.28,3.91,1.74,3.5,1.92,3.0,9.0,6.0,41.15
230414,82808500,1398245290830.6611,-0.3922,-0.2157,-9.2863,-1.2521,-0.2782,-0.4869,0.9027,-4.3801,-85.3533,43.6,289.73,51.045146,13.776747,117.28,3.91,1.74,3.5,1.92,3.0,9.0,6.0,41.15
230414,82808500,1398245290850.368,-0.1372,-0.6471,-9.2667,-1.0434,-0.8347,-0.3478,1.5916,-3.9311,-85.3589,43.6,289.73,51.045146,13.776747,117.28,3.91,1.74,3.5,1.92,3.0,9.0,6.0,41.15
230414,82808500,1398245290870.343,0.098,-0.1667,-9.149,-0.8347,-0.0695,-0.2086,1.5271,-3.3646,-85.5315,43.6,289.73,51.045146,13.776747,117.28,3.91,1.74,3.5,1.92,3.0,9.0,6.0,41.15
230414,82808500,1398245290898.788,-0.402,-0.3628,-9.8648,-0.7652,-1.0434,-0.4173,1.4935,-3.1878,-85.83,43.6,289.73,51.045149,13.776731,117.28,3.91,1.74,3.5,1.92,3.0,9.0,6.0,41.15
230414,82808600,1398245290916.598,-0.0588,-0.1765,-8.8352,-1.8086,-0.2782,-0.2086,1.8312,-2.9536,-86.0286,43.62,290.01,51.045149,13.776731,117.28,3.91,1.74,3.5,1.92,3.0,9.0,6.0,41.15
230414,82808600,1398245290935.298,-0.3039,-0.0196,-10.4238,-1.3913,-1.6695,-0.2782,1.7480000000000002,-2.6119,-86.236,43.62,290.01,51.045149,13.776731,117.28,3.91,1.74,3.5,1.92,3.0,9.0,6.0,41.15
230414,82808600,1398245290942.4282,-0.1274,-0.0882,-9.8158,-1.3913,-0.1391,-0.2086,1.1382,-2.6065,-86.5569,43.62,290.01,51.045149,13.776731,117.28,3.91,1.74,3.5,1.92,3.0,9.0,6.0,41.15
230414,82808600,1398245290956.329,-0.2255,-0.2745,-8.7862,-0.626,-0.9739,-0.4173,0.7344,-2.4934,-86.8498,43.62,290.01,51.045149,13.776731,117.28,3.91,1.74,3.5,1.92,3.0,9.0,6.0,41.15
230414,82808600,1398245290982.482,-0.5491,-0.5295,-10.6003,-1.113,-1.6,-0.5565,2.0379,-2.244,-87.0156,43.62,290.01,51.045153000000006,13.776714000000002,117.28,3.91,1.74,3.5,1.92,3.0,9.0,6.0,41.15
230414,82808700,1398245291010.435,-0.657,-0.3137,-9.855,-1.8782,-1.7391,-0.2782,1.9509999999999998,-2.5943,-87.2534,43.61,290.12,51.045153000000006,13.776714000000002,117.27,3.91,1.74,3.5,1.92,3.0,9.0,6.0,41.15
230414,82808700,1398245291030.453,-0.0686,-0.7158,-9.6589,-1.113,-1.6,-0.2086,2.0797,-1.8013,-87.3947,43.61,290.12,51.045153000000006,13.776714000000002,117.27,3.91,1.74,3.5,1.92,3.0,9.0,6.0,41.15
230414,82808700,1398245291042.037,-0.6864,-0.5197,-10.2571,-0.9739,-2.713,-0.4173,1.5756,-2.3267,-87.6327,43.61,290.12,51.045153000000006,13.776714000000002,117.27,3.91,1.74,3.5,1.92,3.0,9.0,6.0,41.15
230414,82808700,1398245291058.9548,0.0588,-0.2647,-9.502,-1.8782,-1.4608,-0.4173,1.9741,-2.3925,-87.7772,43.61,290.12,51.045153000000006,13.776714000000002,117.27,3.91,1.74,3.5,1.92,3.0,9.0,6.0,41.15
230414,82808700,1398245291076.175,-0.2647,0.1078,-10.512,-2.2956,-1.8782,-0.2782,1.7376,-2.0641,-88.0225,43.61,290.12,51.045157,13.776698000000001,117.27,1.74,1.45,0.96,1.92,3.0,9.0,6.0,41.15
230414,82808800,1398245291106.0571,-0.5589,-0.1274,-10.4238,-2.0173,-2.2956,-0.2086,1.318,-2.6483,-88.3102,43.59,290.55,51.045157,13.776698000000001,117.25,1.74,1.45,0.96,1.92,3.0,9.0,6.0,41.15
230414,82808800,1398245291117.7112,-0.804,-0.2353,-9.6197,-1.8086,-1.7391,-0.2086,1.6019,-3.0636,-88.4843,43.59,290.55,51.045157,13.776698000000001,117.25,1.74,1.45,0.96,1.92,3.0,9.0,6.0,41.15
230414,82808800,1398245291135.6,-0.3432,0.2255,-9.8158,-1.8086,-1.3913,-0.1391,0.7357,-2.8096,-88.7031,43.59,290.55,51.045157,13.776698000000001,117.25,1.74,1.45,0.96,1.92,3.0,9.0,6.0,41.15
230414,82808800,1398245291159.1648,-0.1765,0.1667,-10.0806,-1.6,-0.626,-0.4173,0.6531,-3.2162,-88.87100000000001,43.59,290.55,51.045157,13.776698000000001,117.25,1.74,1.45,0.96,1.92,3.0,9.0,6.0,41.15
230414,82808800,1398245291175.594,-0.1863,0.147,-9.7766,-1.7391,-1.113,-0.2782,0.6671,-2.8206,-89.0451,43.59,290.55,51.045161,13.776682000000001,117.25,3.91,1.74,3.5,1.92,3.0,9.0,6.0,41.15
230414,82808900,1398245291200.825,-0.2941,-0.3726,-10.5218,-1.8782,-0.8347,-0.4869,1.723,-2.4845,-89.1521,44.18,290.4,51.045161,13.776682000000001,117.22,3.91,1.74,3.5,1.92,3.0,9.0,6.0,41.15
230414,82808900,1398245291215.7158,-0.0294,-0.049,-9.7962,-1.9478,-1.3217,-0.2086,1.5534,-1.9813,-89.28299999999999,44.18,290.4,51.045161,13.776682000000001,117.22,3.91,1.74,3.5,1.92,3.0,9.0,6.0,41.15
230414,82808900,1398245291260.3682,0.451,-0.0588,-9.149,-1.5304,0.2782,-0.5565,0.9312,-2.4237,-89.4861,44.18,290.4,51.045161,13.776682000000001,117.22,3.91,1.74,3.5,1.92,3.0,9.0,6.0,41.15
230414,82808900,1398245291275.717,0.5197,-0.0392,-9.0705,-1.5304,-0.5565,-0.4869,1.3428,-1.9664,-89.6614,44.18,290.4,51.045161,13.776682000000001,117.22,3.91,1.74,3.5,1.92,3.0,9.0,6.0,41.15
230414,82808900,1398245291306.5042,-0.3628,0.3235,-9.4726,-2.3652,-2.3652,-0.4869,1.0602,-2.6304,-89.8307,44.18,290.4,51.045165000000004,13.776665,117.22,3.91,1.74,3.5,1.93,3.0,9.0,6.0,41.15
230414,82809000,1398245291321.137,-0.1863,-0.6373,-10.6101,-2.226,-1.9478,-0.4173,1.8491,-1.9032,-90.0025,44.52,290.54,51.045165000000004,13.776665,117.21,3.91,1.74,3.5,1.93,3.0,9.0,6.0,41.15
230414,82809000,1398245291335.6392,-0.2059,-0.6864,-9.6589,-1.6695,-2.0869,-0.2782,1.7049,-2.0902,-90.2822,44.52,290.54,51.045165000000004,13.776665,117.21,3.91,1.74,3.5,1.93,3.0,9.0,6.0,41.15
230414,82809000,1398245291354.0908,-0.0098,-0.4216,-9.6883,-1.1826,-0.9043,-0.5565,1.2535,-2.2044,-90.5804,44.52,290.54,51.045165000000004,13.776665,117.21,3.91,1.74,3.5,1.93,3.0,9.0,6.0,41.15
230414,82809000,1398245291370.5,-0.3137,0.1176,-9.757,-0.6956,-2.6434,-0.4869,0.2448,-2.4585,-90.8602,44.52,290.54,51.045165000000004,13.776665,117.21,3.91,1.74,3.5,1.93,3.0,9.0,6.0,41.15
230414,82809000,1398245291387.1208,-0.1274,0.1176,-9.9727,-1.0434,-2.0869,-0.6956,0.1233,-2.2362,-91.1118,44.52,290.54,51.045169,13.776648000000002,117.21,3.91,1.74,3.5,1.93,3.0,9.0,6.0,41.15
230414,82809100,1398245291409.386,0.2549,0.3922,-10.5611,-1.6695,-4.0347,-0.626,0.3205,-1.2963,-91.2911,44.94,290.62,51.045169,13.776648000000002,117.19,3.91,1.74,3.5,1.93,3.0,9.0,6.0,41.15
230414,82809100,1398245291431.082,0.2549,-0.2157,-9.8256,-1.6,-3.2695,-0.7652,0.9427,-1.3714,-91.4297,44.94,290.62,51.045169,13.776648000000002,117.19,3.91,1.74,3.5,1.93,3.0,9.0,6.0,41.15
230414,82809100,1398245291442.334,0.098,-0.5491,-8.2468,-1.113,-2.4347,-0.6956,1.1894,-2.0816,-91.6071,44.94,290.62,51.045169,13.776648000000002,117.19,3.91,1.74,3.5,1.93,3.0,9.0,6.0,41.15
230414,82809100,1398245291456.319,-1.4611,-0.1274,-10.1884,-1.5304,-2.6434,-0.7652,0.3534,-4.1518,-91.6698,44.94,290.62,51.045169,13.776648000000002,117.19,3.91,1.74,3.5,1.93,3.0,9.0,6.0,41.15
230414,82809100,1398245291481.744,-0.5197,0.3922,-10.5513,-1.8086,-4.1739,-0.6956,-0.1691,-3.2347,-91.5242,44.94,290.62,51.045173,13.776632000000001,117.19,3.91,1.74,3.5,1.93,3.0,9.0,6.0,41.15
230414,82809200,1398245291501.589,-1.0492,0.1961,-10.3944,-2.0869,-5.0782,-0.6956,0.1771,-3.8446,-91.5168,44.87,291.06,51.045173,13.776632000000001,117.17,3.91,1.74,3.5,1.93,3.0,9.0,6.0,41.15
230414,82809200,1398245291516.2021,-1.1865,-0.2647,-9.8354,-2.0173,-3.4782,-0.7652,1.3037,-4.9637,-91.2097,44.87,291.06,51.045173,13.776632000000001,117.17,3.91,1.74,3.5,1.93,3.0,9.0,6.0,41.15
230414,82809200,1398245291538.9111,-0.1863,-0.2941,-8.5018,-1.2521,-2.9217,-0.9043,0.7014,-3.092,-91.1563,44.87,291.06,51.045173,13.776632000000001,117.17,3.91,1.74,3.5,1.93,3.0,9.0,6.0,41.15
230414,82809200,1398245291550.385,-0.6373,-0.402,-9.2863,-0.4173,-2.1565,-0.9739,0.2221,-4.1883,-91.0471,44.87,291.06,51.045173,13.776632000000001,117.17,3.91,1.74,3.5,1.93,3.0,9.0,6.0,41.15
230414,82809200,1398245291570.963,-1.4611,-0.4118,-10.6689,-1.6695,-4.5217,-0.6956,0.9466,-4.4004,-90.8239,44.87,291.06,51.045177,13.776615,117.17,3.91,1.74,3.5,1.93,3.0,9.0,6.0,41.15
230414,82809300,1398245291592.231,-1.2453,0.049,-10.1296,-2.9913,-3.6173,-0.6956,0.7289,-4.7564,-90.7022,44.7299,291.65,51.045177,13.776615,117.15,3.91,1.74,3.5,1.93,3.0,9.0,6.0,41.15
230414,82809300,1398245291620.138,-1.4512,-0.1568,-10.4728,-1.6695,-3.826,-0.5565,0.8122,-5.2703,-90.3154,44.7299,291.65,51.045177,13.776615,117.15,3.91,1.74,3.5,1.93,3.0,9.0,6.0,41.15
230414,82809300,1398245291630.413,-0.2059,-0.4903,-7.3447,-0.4869,-0.9739,-0.7652,1.0568,-4.577,-89.9049,44.7299,291.65,51.045177,13.776615,117.15,3.91,1.74,3.5,1.93,3.0,9.0,6.0,41.15
230414,82809300,1398245291650.387,-0.5785,-0.402,-9.1882,-0.5565,-1.8782,-1.1826,0.8686,-4.4853,-89.5206,44.7299,291.65,51.045177,13.776615,117.15,3.91,1.74,3.5,1.93,3.0,9.0,6.0,41.15
230414,82809300,1398245291670.8408,-1.5101,-0.2353,-8.9823,-1.8086,-3.2695,-0.5565,0.0296,-4.8964,-89.16799999999999,44.7299,291.65,51.045181,13.776599,117.15,3.91,1.74,3.5,1.93,3.0,9.0,6.0,41.15
230414,82809400,1398245291699.055,-1.4611,0.7354,-10.2473,-2.3652,-1.8782,-0.7652,-0.524,-4.5443,-88.975,44.67,291.58,51.045181,13.776599,117.14,3.91,1.74,3.5,1.93,3.0,9.0,6.0,41.15
230414,82809400,1398245291710.397,-0.7452,-0.049,-9.1784,-1.3217,-1.4608,-0.6956,0.1175,-4.431,-88.5948,44.67,291.58,51.045181,13.776599,117.14,3.91,1.74,3.5,1.93,3.0,9.0,6.0,41.15
230414,82809400,1398245291727.5332,0.3922,-0.8825,-6.3641,-0.6956,1.2521,-0.9739,1.8319,-5.3082,-88.2472,44.67,291.58,51.045181,13.776599,117.14,3.91,1.74,3.5,1.93,3.0,9.0,6.0,41.15
230414,82809400,1398245291740.5771,-1.9317,-0.3432,-11.3455,-0.4869,-4.1043,-0.9043,1.0090000000000001,-5.7804,-88.0199,44.67,291.58,51.045181,13.776599,117.14,3.91,1.74,3.5,1.93,3.0,9.0,6.0,41.15
230414,82809400,1398245291756.8809,-1.5689,0.5883,-9.149,-2.0869,-1.3913,-0.7652,0.2923,-5.8489,-87.8741,44.67,291.58,51.045185,13.776582000000001,117.14,3.91,1.74,3.5,1.93,3.0,9.0,6.0,41.15
230414,82809500,1398245291780.112,-1.5199,0.0294,-11.0906,-1.8782,-2.9217,-0.3478,0.7748,-5.5326,-87.7677,44.56,291.54,51.045185,13.776582000000001,117.12,3.91,1.74,3.5,1.93,3.0,9.0,6.0,41.15
230414,82809500,1398245291801.126,0.0,-0.6766,-7.6487,-0.9739,-0.626,-0.7652,1.6904,-4.7471,-87.539,44.56,291.54,51.045185,13.776582000000001,117.12,3.91,1.74,3.5,1.93,3.0,9.0,6.0,41.15
230414,82809500,1398245291826.418,-0.6373,-0.4216,-9.0313,0.6956,-1.7391,-1.1826,1.2909,-5.1956,-87.4762,44.56,291.54,51.045185,13.776582000000001,117.12,3.91,1.74,3.5,1.93,3.0,9.0,6.0,41.15
230414,82809500,1398245291849.468,-2.0984,-0.353,-9.5314,-0.9739,-1.7391,-0.7652,-0.0114,-5.8749,-87.5257,44.56,291.54,51.045185,13.776582000000001,117.12,3.91,1.74,3.5,1.93,3.0,9.0,6.0,41.18
230414,82809500,1398245291870.61,-2.0788,0.0392,-11.2279,-1.113,-3.2,-0.7652,-0.3708,-5.6856,-87.4539,44.56,291.54,51.045189,13.776566,117.12,3.91,1.74,3.5,1.93,3.0,9.0,6.0,41.18
230414,82809600,1398245291892.638,-0.5393,-0.353,-9.0411,-1.4608,-1.3913,-1.0434,1.025,-4.8578,-87.1473,44.58,291.4,51.045189,13.776566,117.12,3.91,1.74,3.5,1.93,3.0,9.0,6.0,41.18
230414,82809600,1398245291910.35,0.2059,0.2353,-8.492,-0.9043,-1.0434,-1.3217,0.7635,-4.4491,-87.0268,44.58,291.4,51.045189,13.776566,117.12,3.91,1.74,3.5,1.93,3.0,9.0,6.0,41.18
230414,82809600,1398245291922.1548,-1.4807,-0.3432,-9.7766,1.113,-3.1304,-1.3217,0.8488,-5.922000000000001,-86.891,44.58,291.4,51.045189,13.776566,117.12,3.91,1.74,3.5,1.93,3.0,9.0,6.0,41.18
230414,82809600,1398245291935.738,-1.8631,-0.2255,-11.0612,-1.5304,-4.3826,-1.1826,0.5429999999999999,-6.1152,-86.7937,44.58,291.4,51.045189,13.776566,117.12,3.91,1.74,3.5,1.93,3.0,9.0,6.0,41.18
230414,82809600,1398245291960.282,-1.5787,0.9511,-11.472999999999999,-2.713,-4.6608,-1.2521,0.779,-5.7997,-86.6589,44.58,291.4,51.045193,13.776549,117.12,3.91,1.74,3.5,1.93,3.0,9.0,6.0,41.18
230414,82809600,1398245291972.192,-1.0492,0.0588,-10.5218,-1.7391,-3.6173,-1.2521,0.523,-5.2336,-86.5868,44.53,291.35,51.045193,13.776549,117.12,3.91,1.74,3.5,1.93,3.0,9.0,6.0,41.18
230414,82809700,1398245292000.3618,-0.1667,-1.1767,-8.2076,0.2086,-1.0434,-1.4608,1.3955,-5.2424,-86.3767,44.53,291.35,51.045193,13.776549,117.12,3.91,1.74,3.5,1.93,3.0,9.0,6.0,41.18
230414,82809700,1398245292015.664,-2.5201,-0.5099,-10.2375,0.0695,-2.7826,-1.7391,0.6059,-6.1089,-86.3574,44.53,291.35,51.045193,13.776549,117.12,3.91,1.74,3.5,1.93,3.0,9.0,6.0,41.18
230414,82809700,1398245292030.3718,-3.1281,0.0784,-11.2377,-2.6434,-3.6173,-1.113,-0.1965,-6.4286,-86.3334,44.53,291.35,51.045193,13.776549,117.12,3.91,1.74,3.5,1.93,3.0,9.0,6.0,41.18
230414,82809700,1398245292050.895,-1.6179,0.4804,-10.1786,-2.0869,-3.1304,-0.7652,0.2955,-6.4307,-86.178,44.53,291.35,51.045196999999995,13.776532999999999,117.12,1.74,1.45,0.96,1.93,3.0,9.0,6.0,41.18
230414,82809700,1398245292071.811,0.0784,-0.4314,-6.5798,-1.3217,1.113,-0.9043,0.3456,-5.3215,-86.0286,44.57,291.29,51.045196999999995,13.776532999999999,117.1,1.74,1.45,0.96,1.93,3.0,9.0,6.0,41.18
230414,82809800,1398245292090.333,-1.3042,-0.7354,-9.3353,0.5565,-0.9739,-1.6695,0.3054,-6.4043,-85.8644,44.57,291.29,51.045196999999995,13.776532999999999,117.1,1.74,1.45,0.96,1.93,3.0,9.0,6.0,41.18
230414,82809800,1398245292110.429,-0.755,0.6962,-8.6685,-0.626,-1.5304,-1.3217,-1.1096,-5.7305,-85.9232,44.57,291.29,51.045196999999995,13.776532999999999,117.1,1.74,1.45,0.96,1.93,3.0,9.0,6.0,41.18
230414,82809800,1398245292122.332,-1.1767,0.9511,-10.8945,-1.2521,-1.3217,-1.4608,-0.6483,-6.9258,-85.7967,44.57,291.29,51.045196999999995,13.776532999999999,117.1,1.74,1.45,0.96,1.93,3.0,9.0,6.0,41.18
230414,82809800,1398245292136.224,-1.6081,-0.1961,-11.7378,-2.226,-4.1043,-1.113,0.552,-6.672999999999999,-85.5387,44.57,291.29,51.045201,13.776516,117.1,1.74,1.45,0.96,1.93,3.0,9.0,6.0,41.18
230414,82809800,1398245292171.224,-0.1176,-0.451,-8.0801,-0.7652,1.9478,-1.3913,1.1313,-6.3572,-85.2818,44.57,291.29,51.045201,13.776516,117.08,1.74,1.45,0.96,1.93,3.0,9.0,6.0,41.18
230414,82809900,1398245292190.4958,-0.4706,-1.412,-8.2076,0.0695,-0.7652,-1.5304,1.6492,-6.0039,-85.0379,44.94,291.23,51.045201,13.776516,117.08,1.74,1.45,0.96,1.93,3.0,9.0,6.0,41.18
230414,82809900,1398245292202.536,-0.8825,0.0588,-8.4626,-0.2782,-0.0695,-1.4608,0.5764,-6.1417,-84.9918,44.94,291.23,51.045201,13.776516,117.08,1.74,1.45,0.96,1.93,3.0,9.0,6.0,41.18
230414,82809900,1398245292215.792,-2.5495,0.7354,-11.9437,-1.8782,-3.826,-0.9043,-0.1086,-6.8993,-84.9018,44.94,291.23,51.045201,13.776516,117.08,1.74,1.45,0.96,1.93,3.0,9.0,6.0,41.18
230414,82809900,1398245292230.3508,-1.6081,-0.6668,-10.7866,-2.5739,-1.4608,-0.8347,1.6051,-6.2282,-84.633,44.94,291.23,51.045204999999996,13.776499,117.08,1.74,1.45,0.96,1.93,3.0,9.0,6.0,41.18
230414,82809900,1398245292250.8992,0.9904,-0.2843,-8.2468,-2.5739,0.9739,-0.9739,1.2219,-4.9556,-84.6193,44.94,291.23,51.045204999999996,13.776499,117.11,1.74,1.45,0.96,1.93,3.0,9.0,6.0,41.18
230414,82810000,1398245292270.3928,-0.9217,0.049,-7.9723,0.7652,-1.2521,-1.3913,0.2874,-5.3931,-84.6487,45.07,292.29,51.045204999999996,13.776499,117.11,1.74,1.45,0.96,1.93,3.0,9.0,6.0,41.18
230414,82810000,1398245292291.86,-0.1274,-0.6275,-9.3647,-0.1391,-0.2086,-1.0434,0.5928,-5.7149,-84.6109,45.07,292.29,51.045204999999996,13.776499,117.11,1.74,1.45,0.96,1.93,3.0,9.0,6.0,41.18
230414,82810000,1398245292310.3472,-0.8923,0.7844,-10.6395,-2.2956,-1.113,-0.9043,-0.2629,-6.3259,-84.7145,45.07,292.29,51.045204999999996,13.776499,117.11,1.74,1.45,0.96,1.93,3.0,9.0,6.0,41.18
230414,82810000,1398245292324.266,-1.8631,0.0686,-11.071,-2.5043,-2.8521,-0.6956,0.4059,-6.5585,-84.6633,45.07,292.29,51.04521,13.776482999999999,117.11,3.91,1.74,3.5,1.92,3.0,9.0,6.0,41.18
230414,82810000,1398245292340.888,-1.0296,-0.2843,-9.1196,-1.6,-1.113,-0.8347,0.7617,-4.9768,-84.6181,45.07,292.29,51.04521,13.776482999999999,117.11,3.91,1.74,3.5,1.92,3.0,9.0,6.0,41.18
230414,82810100,1398245292356.4302,-0.4903,-0.4314,-8.0017,0.8347,0.5565,-1.3913,0.7573,-5.524,-84.6502,45.6,292.08,51.04521,13.776482999999999,117.11,3.91,1.74,3.5,1.92,3.0,9.0,6.0,41.18
230414,82810100,1398245292370.464,-1.2257,0.6079,-9.4432,0.4173,-1.5304,-1.4608,-0.0075,-5.7635,-84.7811,45.6,292.08,51.04521,13.776482999999999,117.11,3.91,1.74,3.5,1.92,3.0,9.0,6.0,41.18
230414,82810100,1398245292383.666,-1.4414,0.5491,-11.5319,-1.2521,-3.8956,-0.7652,0.3179,-5.9975,-84.8271,45.6,292.08,51.04521,13.776482999999999,117.11,3.91,1.74,3.5,1.92,3.0,9.0,6.0,41.18
230414,82810100,1398245292400.691,-1.8239,-0.6766,-10.8651,-2.2956,-3.2695,-0.7652,1.3356,-5.796,-84.8219,45.6,292.08,51.045214,13.776465,117.11,3.91,1.74,3.5,1.92,3.0,9.0,6.0,41.18
230414,82810100,1398245292415.749,0.4412,-0.4903,-9.4824,-1.9478,-0.0695,-0.9739,1.2707,-5.2892,-84.8022,45.6,292.08,51.045214,13.776465,117.11,3.91,1.74,3.5,1.92,3.0,9.0,6.0,41.18
230414,82810200,1398245292435.742,0.2647,-0.1176,-8.1292,0.1391,-0.4173,-1.3217,1.1986,-5.141,-84.7864,45.69,291.85,51.045214,13.776465,117.11,3.91,1.74,3.5,1.92,3.0,9.0,6.0,41.18
230414,82810200,1398245292452.973,-1.6179,0.5589,-9.7668,-1.0434,-2.1565,-1.0434,0.4362,-5.7358,-84.8528,45.69,291.85,51.045214,13.776465,117.11,3.91,1.74,3.5,1.92,3.0,9.0,6.0,41.18
230414,82810200,1398245292470.457,-1.8533,-0.5197,-10.3944,-1.9478,-3.3391,-1.0434,1.0332,-6.1458,-84.8254,45.69,291.85,51.045214,13.776465,117.11,3.91,1.74,3.5,1.92,3.0,9.0,6.0,41.18
230414,82810200,1398245292490.973,-1.7062,-0.1961,-11.022,-2.9913,-2.9913,-0.5565,1.0004,-5.7237,-84.8981,45.69,291.85,51.045218,13.776448,117.11,3.91,1.74,3.5,1.92,3.0,9.0,6.0,41.18
230414,82810200,1398245292518.97,-0.7648,-0.0098,-9.3745,-2.2956,-1.3217,-0.626,0.8838,-5.3022,-84.9382,45.69,291.85,51.045218,13.776448,117.11,3.91,1.74,3.5,1.92,3.0,9.0,6.0,41.18
230414,82810300,1398245292535.868,-0.0196,-0.049,-7.7271,-0.626,0.9739,-1.113,0.0133,-4.6105,-85.1073,45.79,292.32,51.045218,13.776448,117.15,3.91,1.74,3.5,1.92,3.0,9.0,6.0,41.18
230414,82810300,1398245292552.969,-1.1963,0.2451,-9.9237,-0.8347,-2.9913,-1.113,-0.113,-5.2167,-85.1227,45.79,292.32,51.045218,13.776448,117.15,3.91,1.74,3.5,1.92,3.0,9.0,6.0,41.18
230414,82810300,1398245292570.478,-2.1279,-0.3039,-11.1102,-1.5304,-2.0173,-0.9043,-0.2746,-5.5656,-85.1141,45.79,292.32,51.045218,13.776448,117.15,3.91,1.74,3.5,1.92,3.0,9.0,6.0,41.18
230414,82810300,1398245292590.392,-1.8925,0.3922,-11.2671,-0.8347,-3.4086,-0.9043,-0.2627,-5.8773,-85.1198,45.79,292.32,51.045227000000004,13.776414,117.15,3.91,1.74,3.5,1.92,3.0,9.0,6.0,41.18
230414,82810300,1398245292614.876,-0.6373,-0.3039,-8.8646,-2.5043,-1.5304,-0.626,1.3878,-5.4422,-84.9964,45.79,292.32,51.045227000000004,13.776414,117.15,3.91,1.74,3.5,1.92,3.0,9.0,6.0,41.18
230414,82810400,1398245292635.7559,-0.3235,-0.706,-9.4432,-0.7652,0.4173,-0.9739,1.3819,-4.2895,-85.0996,46.4,292.32,51.045227000000004,13.776414,117.14,3.91,1.74,3.5,1.92,3.0,9.0,6.0,41.18
230414,82810400,1398245292652.936,-0.6373,-0.7746,-9.1294,-1.113,-0.6956,-0.9043,1.4365,-5.1316,-85.1506,46.4,292.32,51.045227000000004,13.776414,117.14,3.91,1.74,3.5,1.92,3.0,9.0,6.0,41.18
230414,82810400,1398245292670.3489,-0.6471,-0.147,-11.375,-1.113,-1.9478,-1.2521,1.1252,-4.4441,-85.2887,46.4,292.32,51.045227000000004,13.776414,117.14,3.91,1.74,3.5,1.92,3.0,9.0,6.0,41.18
230414,82810400,1398245292690.378,-0.9707,0.5393,-10.6101,-2.1565,-1.3913,-0.5565,0.6101,-5.4003,-85.4758,46.4,292.32,51.045231,13.776397,117.14,3.91,1.74,3.5,1.92,3.0,9.0,6.0,41.18
230414,82810400,1398245292710.39,-1.4611,-0.5099,-10.3944,-1.5304,-1.5304,-0.626,1.4718,-5.1041,-85.509,46.4,292.32,51.045231,13.776397,117.14,3.91,1.74,3.5,1.92,3.0,9.0,6.0,41.18
230414,82810500,1398245292728.177,-0.1863,-0.5393,-9.0902,-1.5304,-2.0869,-0.626,2.5335,-4.6317,-85.5039,46.35,291.88,51.045231,13.776397,117.14,3.91,1.74,3.5,1.92,3.0,9.0,6.0,41.18
230414,82810500,1398245292740.329,-0.5393,-0.8433,-9.3549,-0.0695,-1.3913,-0.5565,2.5461,-4.4862,-85.6552,46.35,291.88,51.045231,13.776397,117.14,3.91,1.74,3.5,1.92,3.0,9.0,6.0,41.18
230414,82810500,1398245292756.898,-1.4611,-0.657,-9.6099,-0.3478,-1.6695,-0.6956,2.4904,-5.1056,-85.806,46.35,291.88,51.045231,13.776397,117.14,3.91,1.74,3.5,1.92,3.0,9.0,6.0,41.18
230414,82810500,1398245292772.5051,-0.706,-0.2549,-9.4628,-1.3913,-2.0869,-0.4173,1.4997,-5.2938,-86.0939,46.35,291.88,51.045235999999996,13.77638,117.14,3.91,1.74,3.5,1.92,3.0,9.0,6.0,41.18
230414,82810500,1398245292795.9429,-0.5785,0.4706,-10.9141,-2.5043,-1.8782,-0.4173,1.7288,-4.7618,-86.2306,46.35,291.88,51.045235999999996,13.77638,117.14,3.91,1.74,3.5,1.92,3.0,9.0,6.0,41.18
230414,82810600,1398245292810.401,-0.4608,-0.2745,-9.2471,-1.9478,-1.2521,-0.6956,2.3417,-5.436,-86.4279,46.69,292.52,51.045235999999996,13.77638,117.14,3.91,1.74,3.5,1.92,3.0,9.0,6.0,41.18
230414,82810600,1398245292826.324,-0.2843,-0.9904,-7.8056,-1.2521,-0.2086,-0.5565,2.9745,-5.2319,-86.5564,46.69,292.52,51.045235999999996,13.77638,117.14,3.91,1.74,3.5,1.92,3.0,9.0,6.0,41.18
230414,82810600,1398245292839.652,0.0392,-0.4804,-8.4332,-0.9043,0.0695,-0.9739,1.9569999999999999,-5.1883,-86.8566,46.69,292.52,51.045235999999996,13.77638,117.14,3.91,1.74,3.5,1.92,3.0,9.0,6.0,41.18
230414,82810600,1398245292859.6511,-0.706,0.2353,-10.8356,-1.2521,-2.3652,-0.9043,0.659,-4.5033,-87.1233,46.69,292.52,51.04524,13.776361999999999,117.14,1.74,1.45,0.96,1.92,3.0,9.0,6.0,41.18
230414,82810600,1398245292875.853,-0.3824,0.3235,-10.2865,-2.713,-1.8782,-0.7652,0.7423,-4.458,-87.3296,46.69,292.52,51.04524,13.776361999999999,117.14,1.74,1.45,0.96,1.92,3.0,9.0,6.0,41.18
230414,82810700,1398245292897.8691,-0.8727,-0.2647,-10.2865,-2.9217,-2.0869,-0.7652,1.7566,-4.6667,-87.4164,47.05,292.62,51.04524,13.776361999999999,117.14,1.74,1.45,0.96,1.92,3.0,9.0,6.0,41.18
230414,82810700,1398245292915.769,-0.2941,-0.755,-8.5999,-2.5739,-1.0434,-0.6956,2.3429,-4.3898,-87.4263,47.05,292.62,51.04524,13.776361999999999,117.14,1.74,1.45,0.96,1.92,3.0,9.0,6.0,41.18
230414,82810700,1398245292938.287,-0.402,-1.1767,-9.2961,-2.2956,-1.113,-0.7652,2.6153,-3.6833,-87.4587,47.05,292.62,51.04524,13.776361999999999,117.14,1.74,1.45,0.96,1.92,3.0,9.0,6.0,41.18
230414,82810700,1398245292951.349,-0.2255,0.3628,-9.5118,-2.1565,-0.9739,-0.9043,0.8198,-3.6765,-87.639,47.05,292.62,51.045245,13.776345000000001,117.14,1.74,1.45,0.96,1.92,3.0,9.0,6.0,41.18
230414,82810700,1398245292970.506,-0.9904,0.4314,-11.3848,-2.7826,-2.6434,-0.7652,0.2275,-3.9111,-87.8614,47.05,292.62,51.045245,13.776345000000001,117.14,1.74,1.45,0.96,1.92,3.0,9.0,6.0,41.18
230414,82810800,1398245292992.208,-0.6864,0.6177,-10.5611,-2.9913,-1.6,-0.7652,-0.2873,-3.7811,-87.9924,47.4099,292.73,51.045245,13.776345000000001,117.14,1.74,1.45,0.96,1.92,3.0,9.0,6.0,41.18
230414,82810800,1398245293010.353,-0.706,0.1176,-9.7864,-2.226,-2.0173,-0.6956,0.2541,-3.6333,-88.1267,47.4099,292.73,51.045245,13.776345000000001,117.14,1.74,1.45,0.96,1.92,3.0,9.0,6.0,41.18
230414,82810800,1398245293021.724,-0.657,-0.706,-9.2274,-1.5304,-1.2521,-0.7652,0.6963,-3.6686,-88.196,47.4099,292.73,51.045245,13.776345000000001,117.14,1.74,1.45,0.96,1.92,3.0,9.0,6.0,41.18
230414,82810800,1398245293040.039,0.6177,-0.5589,-7.9429,-0.9043,0.0,-0.8347,0.5327,-3.1027,-88.2795,47.4099,292.73,51.045249,13.776328,117.14,1.74,1.45,0.96,1.92,3.0,9.0,6.0,41.18
230414,82810800,1398245293056.927,-0.5197,0.0588,-10.1688,-1.0434,-2.0869,-0.8347,0.22,-3.678,-88.4705,47.4099,292.73,51.045249,13.776328,117.14,1.74,1.45,0.96,1.92,3.0,9.0,6.0,41.18
230414,82810900,1398245293075.9722,-1.5689,0.1176,-11.8064,-2.4347,-3.6173,-0.626,0.0836,-3.4621,-88.6724,47.78,292.48,51.045249,13.776328,117.15,1.74,1.45,0.96,1.92,3.0,9.0,6.0,41.18
230414,82810900,1398245293090.393,-0.6177,-0.0294,-10.2375,-2.4347,-2.6434,-0.5565,0.1804,-3.4133,-88.9195,47.78,292.48,51.045249,13.776328,117.15,1.74,1.45,0.96,1.92,3.0,9.0,6.0,41.18
230414,82810900,1398245293111.8218,-0.5001,-0.2549,-9.3647,-1.8782,-1.5304,-0.6956,0.4352,-3.9491,-88.8841,47.78,292.48,51.045249,13.776328,117.15,1.74,1.45,0.96,1.92,3.0,9.0,6.0,41.18
230414,82810900,1398245293131.1582,0.1961,-0.2745,-8.5802,-0.7652,-2.0869,-0.626,0.2067,-2.833,-88.9432,47.78,292.48,51.045253,13.77631,117.15,3.91,1.74,3.5,1.91,3.0,9.0,6.0,41.18
230414,82810900,1398245293150.414,0.2451,0.1078,-8.9921,-0.4869,-1.1826,-0.6956,-0.2631,-2.7934,-89.0537,47.78,292.48,51.045253,13.77631,117.15,3.91,1.74,3.5,1.91,3.0,9.0,6.0,41.18
230414,82811000,1398245293185.672,-0.4706,0.5393,-10.2473,-0.1391,-2.6434,-0.6956,-0.9806,-3.6445,-89.2978,47.42,290.5299,51.045253,13.77631,117.08,3.91,1.74,3.5,1.91,3.0,9.0,6.0,41.18
230414,82811000,1398245293221.191,-1.5493,0.4118,-11.6495,-1.6,-3.9652,-0.4869,-0.6224,-4.1665,-89.5259,47.42,290.5299,51.045253,13.77631,117.08,3.91,1.74,3.5,1.91,3.0,9.0,6.0,41.18
230414,82811000,1398245293240.415,-0.3628,0.1961,-10.0904,-1.2521,-1.9478,-0.4173,0.0569,-4.2793,-89.7119,47.42,290.5299,51.045253,13.77631,117.08,3.91,1.74,3.5,1.91,3.0,9.0,6.0,41.18
230414,82811000,1398245293274.95,-0.5393,-0.5099,-9.3745,-0.5565,-2.2956,-0.5565,0.9922,-3.7602,-89.8207,47.42,290.5299,51.045257,13.776292999999999,117.08,3.91,1.74,3.5,1.91,3.0,9.0,6.0,41.18
230414,82811000,1398245293310.4192,0.2157,-0.2255,-8.5214,0.4869,-1.4608,-0.7652,0.1345,-3.2207,-89.9533,47.42,290.5299,51.045257,13.776292999999999,117.08,3.91,1.74,3.5,1.91,3.0,9.0,6.0,41.18
230414,82811100,1398245293330.413,0.0,-0.3922,-8.5214,0.8347,-0.5565,-0.9739,0.649,-3.6498,-89.9155,47.83,292.05,51.045257,13.776292999999999,117.09,3.91,1.74,3.5,1.91,3.0,9.0,6.0,41.18
230414,82811100,1398245293350.383,-0.6864,-0.3628,-11.1396,-0.5565,-2.9913,-0.7652,1.7107,-3.2403,-89.9764,47.83,292.05,51.045257,13.776292999999999,117.09,3.91,1.74,3.5,1.91,3.0,9.0,6.0,41.18
230414,82811100,1398245293371.655,-1.2747,-0.0294,-10.4826,-1.3217,-2.0869,-0.4869,1.6972,-4.4161,-90.1033,47.83,292.05,51.045257,13.776292999999999,117.09,3.91,1.74,3.5,1.91,3.0,9.0,6.0,41.18
230414,82811100,1398245293391.4648,-1.1079999999999999,-0.4804,-9.9923,-1.8782,-2.1565,-0.5565,2.2831,-4.0407,-90.149,47.83,292.05,51.045260999999996,13.776275,117.09,1.74,1.45,0.96,1.91,3.0,9.0,6.0,41.18
230414,82811100,1398245293410.3992,-0.3824,-0.8335,-8.4037,-1.7391,-0.9043,-0.626,2.7833,-4.0473,-90.1781,47.83,292.05,51.045260999999996,13.776275,117.09,1.74,1.45,0.96,1.91,3.0,9.0,6.0,41.18
230414,82811200,1398245293430.393,-0.1372,-0.4804,-9.0705,0.1391,-1.5304,-0.7652,1.6638,-2.7582,-90.2635,47.7299,291.52,51.045260999999996,13.776275,117.09,1.74,1.45,0.96,1.91,3.0,9.0,6.0,41.18
230414,82811200,1398245293450.01,0.6373,-0.1568,-8.7568,-0.4173,0.4869,-0.9739,1.5435,-3.2159,-90.2373,47.7299,291.52,51.045260999999996,13.776275,117.09,1.74,1.45,0.96,1.91,3.0,9.0,6.0,41.18
230414,82811200,1398245293470.403,-0.9413,-0.147,-11.5711,-1.113,-2.1565,-0.8347,1.5015,-3.5758,-90.2917,47.7299,291.52,51.045260999999996,13.776275,117.09,1.74,1.45,0.96,1.91,3.0,9.0,6.0,41.18
230414,82811200,1398245293483.907,-1.0884,-0.3334,-10.5513,-2.3652,-1.113,-0.626,1.2713,-3.4426,-90.3836,47.7299,291.52,51.045266,13.776257999999999,117.09,3.91,1.74,3.5,1.91,3.0,9.0,6.0,41.18
230414,82811200,1398245293500.834,-0.5197,0.147,-9.8648,-1.0434,-1.8782,-0.626,0.0849,-2.7674,-90.4876,47.7299,291.52,51.045266,13.776257999999999,117.09,3.91,1.74,3.5,1.91,3.0,9.0,6.0,41.18
230414,82811300,1398245293515.93,0.1667,-0.6864,-8.894,-1.113,-0.626,-0.7652,1.8434,-2.0504,-90.4138,47.74,292.08,51.045266,13.776257999999999,117.09,3.91,1.74,3.5,1.91,3.0,9.0,6.0,41.18
230414,82811300,1398245293533.097,0.5491,-0.4608,-8.7077,-1.4608,-1.5304,-1.113,1.8317,-2.0091,-90.4642,47.74,292.08,51.045266,13.776257999999999,117.09,3.91,1.74,3.5,1.91,3.0,9.0,6.0,41.18
230414,82811300,1398245293552.4211,0.1078,-0.147,-9.6883,-1.0434,-2.0173,-0.9739,1.2082,-2.0553,-90.5034,47.74,292.08,51.045266,13.776257999999999,117.09,3.91,1.74,3.5,1.91,3.0,9.0,6.0,41.18
230414,82811300,1398245293571.214,-1.4316,-0.0294,-11.6201,-2.3652,-4.8,-0.8347,1.2596,-2.7866,-90.5411,47.74,292.08,51.04527,13.77624,117.09,3.91,1.74,3.5,1.91,3.0,9.0,6.0,41.18
230414,82811300,1398245293590.3982,-0.5589,0.4903,-9.8648,-2.6434,-2.5043,-0.8347,-0.3897,-2.7509,-90.6184,47.74,292.08,51.04527,13.77624,117.09,3.91,1.74,3.5,1.91,3.0,9.0,6.0,41.18
230414,82811400,1398245293613.033,-0.9119,-0.451,-10.0708,-1.8782,-2.713,-0.8347,0.5915,-2.9582,-90.5522,47.72,293.12,51.04527,13.77624,117.11,3.91,1.74,3.5,1.91,3.0,9.0,6.0,41.18
230414,82811400,1398245293630.083,0.3137,-0.1667,-8.3547,-1.7391,-2.3652,-0.7652,0.9418,-2.0603,-90.51,47.72,293.12,51.04527,13.77624,117.11,3.91,1.74,3.5,1.91,3.0,9.0,6.0,41.18
230414,82811400,1398245293645.876,0.1667,-0.4412,-8.6293,-0.2086,-1.9478,-1.113,0.6439,-2.3522,-90.4771,47.72,293.12,51.04527,13.77624,117.11,3.91,1.74,3.5,1.91,3.0,9.0,6.0,41.18
230414,82811400,1398245293661.742,0.147,-0.049,-9.0705,-1.0434,-0.9043,-0.9739,1.3485,-2.8768,-90.4289,47.72,293.12,51.045275,13.776223000000002,117.11,3.91,1.74,3.5,1.91,3.0,9.0,6.0,41.18
230414,82811400,1398245293675.978,-1.1473,-0.0392,-11.6495,-2.9913,-3.9652,-0.5565,0.6923,-3.3324,-90.4162,47.72,293.12,51.045275,13.776223000000002,117.11,3.91,1.74,3.5,1.91,3.0,9.0,6.0,41.18
230414,82811500,1398245293709.739,-0.2255,0.2353,-9.6981,-2.3652,-1.6,-0.6956,-0.04,-2.3401,-90.3186,47.7,292.83,51.045275,13.776223000000002,117.12,3.91,1.74,3.5,1.91,3.0,9.0,6.0,41.18
230414,82811500,1398245293721.026,-0.4608,-0.3235,-9.8844,-1.6695,-1.7391,-0.8347,1.3395,-3.055,-90.2137,47.7,292.83,51.045275,13.776223000000002,117.12,3.91,1.74,3.5,1.91,3.0,9.0,6.0,41.18
230414,82811500,1398245293735.975,-0.657,-0.1765,-8.2665,-2.4347,-1.113,-0.626,0.8872,-2.4524,-90.1211,47.7,292.83,51.045275,13.776223000000002,117.12,3.91,1.74,3.5,1.91,3.0,9.0,6.0,41.25
230414,82811500,1398245293747.554,-0.4608,-0.3628,-9.5216,-1.3217,-1.6695,-0.8347,0.9109,-2.6196,-90.0366,47.7,292.83,51.045279,13.776205,117.12,3.91,1.74,3.5,1.91,3.0,9.0,6.0,41.25
230414,82811500,1398245293767.2842,-1.0492,0.4314,-9.7766,-2.0173,-1.8782,-0.6956,-0.0534,-2.5978,-90.0162,47.7,292.83,51.045279,13.776205,117.12,3.91,1.74,3.5,1.91,3.0,9.0,6.0,41.25
230414,82811600,1398245293791.799,-1.1669,0.4314,-11.5809,-2.1565,-3.8956,-0.626,-0.1053,-3.2759,-89.9693,47.4099,292.3399,51.045279,13.776205,117.11,3.91,1.74,3.5,1.91,3.0,9.0,6.0,41.25
230414,82811600,1398245293810.36,0.0098,0.2843,-9.4334,-2.5739,-1.0434,-0.7652,-0.1688,-2.6377,-89.9299,47.4099,292.3399,51.045279,13.776205,117.11,3.91,1.74,3.5,1.91,3.0,9.0,6.0,41.25
230414,82811600,1398245293821.551,-0.6079,-1.0492,-9.855,-0.2782,-2.0173,-0.8347,0.5996,-2.7421,-89.9492,47.4099,292.3399,51.045279,13.776205,117.11,3.91,1.74,3.5,1.91,3.0,9.0,6.0,41.25
230414,82811600,1398245293836.823,-0.6962,-1.1865,-8.3939,-1.0434,-0.2782,-0.8347,1.5217,-2.2694,-89.9723,47.4099,292.3399,51.045283000000005,13.776188000000001,117.11,1.74,1.45,0.96,1.91,3.0,9.0,6.0,41.25
230414,82811600,1398245293856.937,0.0882,-0.3039,-9.3549,-1.1826,-2.2956,-1.2521,1.0524,-2.3882,-89.9731,47.4099,292.3399,51.045283000000005,13.776188000000001,117.11,1.74,1.45,0.96,1.91,3.0,9.0,6.0,41.25
230414,82811700,1398245293876.031,-1.1276,0.6079,-10.061,-1.6695,-2.0173,-0.9739,0.0737,-2.9649,-90.0244,47.72,292.31,51.045283000000005,13.776188000000001,117.11,1.74,1.45,0.96,1.91,3.0,9.0,6.0,41.25
230414,82811700,1398245293893.098,-1.1276,0.0,-11.0514,-2.0869,-4.1043,-0.8347,0.2659,-3.2175,-89.9786,47.72,292.31,51.045283000000005,13.776188000000001,117.11,1.74,1.45,0.96,1.91,3.0,9.0,6.0,41.25
230414,82811700,1398245293915.9392,0.2647,0.0098,-10.4532,-2.0869,-2.713,-0.9043,-0.3533,-2.108,-90.0737,47.72,292.31,51.045283000000005,13.776188000000001,117.11,1.74,1.45,0.96,1.91,3.0,9.0,6.0,41.25
230414,82811700,1398245293939.118,-1.1473,-0.5393,-10.11,-1.6,-3.2,-1.0434,0.7567,-3.0663,-90.0424,47.72,292.31,51.045288,13.776171,117.11,3.91,1.74,3.5,1.91,3.0,9.0,6.0,41.25
230414,82811700,1398245293957.058,-0.1667,0.0294,-8.6293,-2.1565,-1.4608,-0.8347,0.4587,-2.5834,-90.0049,47.72,292.31,51.045288,13.776171,117.11,3.91,1.74,3.5,1.91,3.0,9.0,6.0,41.25
230414,82811800,1398245293975.975,-0.5295,-0.5393,-9.855,-0.626,-2.9913,-0.8347,0.4679,-2.8059,-89.9185,47.25,292.3,51.045288,13.776171,116.99,3.91,1.74,3.5,1.91,3.0,9.0,6.0,41.25
230414,82811800,1398245293993.1272,0.2941,0.0098,-10.2571,-1.2521,-2.713,-0.8347,0.2521,-2.1533,-89.8718,47.25,292.3,51.045288,13.776171,116.99,3.91,1.74,3.5,1.91,3.0,9.0,6.0,41.25
230414,82811800,1398245294010.395,-0.6766,-0.049,-10.8651,-0.6956,-3.3391,-0.9739,-0.4303,-3.0561,-89.8973,47.25,292.3,51.045288,13.776171,116.99,3.91,1.74,3.5,1.91,3.0,9.0,6.0,41.25
230414,82811800,1398245294031.138,-0.9609,-0.2647,-10.9631,-1.9478,-2.9217,-0.9043,0.465,-3.261,-89.7838,47.25,292.3,51.045291999999996,13.776153,116.99,3.91,1.74,3.5,1.91,3.0,9.0,6.0,41.25
230414,82811800,1398245294048.906,-0.0686,-1.1571,-9.453,-1.9478,-2.7826,-0.626,1.9256,-2.2683,-89.7387,47.25,292.3,51.045291999999996,13.776153,116.99,3.91,1.74,3.5,1.91,3.0,9.0,6.0,41.25
230414,82811900,1398245294072.7441,-1.0296,-0.9806,-7.8154,-1.113,-1.3217,-0.6956,2.1239,-3.8477,-89.7158,47.36,292.11,51.045291999999996,13.776153,117.03,3.91,1.74,3.5,1.91,3.0,9.0,6.0,41.25
230414,82811900,1398245294090.354,1.4611,0.4903,-7.3349,-1.5304,-0.8347,-0.9043,0.1143,-3.2152,-89.76899999999999,47.36,292.11,51.045291999999996,13.776153,117.03,3.91,1.74,3.5,1.91,3.0,9.0,6.0,41.25
230414,82811900,1398245294111.6392,-0.8335,0.6177,-12.689,-1.2521,-3.4086,-1.2521,-0.0395,-2.5488,-89.7435,47.36,292.11,51.045291999999996,13.776153,117.03,3.91,1.74,3.5,1.91,3.0,9.0,6.0,41.25
230414,82811900,1398245294131.147,-0.5785,0.2843,-9.8746,-2.0869,-1.4608,-0.8347,0.2453,-3.4344,-89.7101,47.36,292.11,51.045297,13.776136,117.03,3.91,1.74,3.5,1.91,3.0,9.0,6.0,41.25
230414,82811900,1398245294150.182,-1.4316,-0.2647,-10.1492,-2.8521,-1.3217,-0.6956,0.5737,-3.1384,-89.7362,47.36,292.11,51.045297,13.776136,117.03,3.91,1.74,3.5,1.91,3.0,9.0,6.0,41.25
230414,82812000,1398245294173.125,-0.5001,-0.1176,-8.9823,-1.6,-1.2521,-0.9043,-0.3529,-3.6026,-89.7763,47.32,292.58,51.045297,13.776136,116.98,3.91,1.74,3.5,1.91,3.0,9.0,6.0,41.25
230414,82812000,1398245294190.3508,0.8139,0.049,-7.8938,-0.2086,0.2782,-1.113,-0.1524,-2.8601,-89.6727,47.32,292.58,51.045297,13.776136,116.98,3.91,1.74,3.5,1.91,3.0,9.0,6.0,41.25
230414,82812000,1398245294211.8691,-0.2353,0.2549,-10.1198,0.4173,-1.5304,-1.1826,0.0856,-2.7033,-89.6025,47.32,292.58,51.045297,13.776136,116.98,3.91,1.74,3.5,1.91,3.0,9.0,6.0,41.25
230414,82812000,1398245294231.124,-0.5295,0.3432,-10.5611,-0.5565,-1.6695,-1.1826,-0.0517,-2.5687,-89.5418,47.32,292.58,51.045301,13.776117999999999,116.98,3.91,1.74,3.5,1.91,3.0,9.0,6.0,41.25
230414,82812000,1398245294250.453,-0.9707,-0.0294,-10.4042,-2.5739,-1.9478,-1.1826,0.8687,-2.9162,-89.5203,47.32,292.58,51.045301,13.776117999999999,116.98,3.91,1.74,3.5,1.91,3.0,9.0,6.0,41.25
230414,82812100,1398245294280.511,-0.3432,0.2255,-9.9237,-3.1304,-0.7652,-0.9739,0.3987,-3.2584,-89.5447,47.38,292.65,51.045301,13.776117999999999,116.92,3.91,1.74,3.5,1.91,3.0,9.0,6.0,41.25
230414,82812100,1398245294290.373,-0.6766,-1.5493,-9.2274,-1.6,-2.0869,-0.6956,1.0527,-2.541,-89.5855,47.38,292.65,51.045301,13.776117999999999,116.92,3.91,1.74,3.5,1.91,3.0,9.0,6.0,41.25
230414,82812100,1398245294308.047,0.1274,0.0392,-8.9823,-0.9043,-0.3478,-0.8347,0.0704,-2.2973,-89.6949,47.38,292.65,51.045301,13.776117999999999,116.92,3.91,1.74,3.5,1.91,3.0,9.0,6.0,41.25
230414,82812100,1398245294331.1428,1.0198,-0.049,-9.6099,-2.5739,-2.5739,-0.6956,0.0947,-1.4625,-89.8407,47.38,292.65,51.045306,13.776101,116.92,3.91,1.74,3.5,1.91,3.0,9.0,6.0,41.25
230414,82812100,1398245294350.41,0.5589,0.3922,-10.8258,-1.9478,-1.8782,-1.3913,0.0589,-1.9077,-89.865,47.38,292.65,51.045306,13.776101,116.92,3.91,1.74,3.5,1.91,3.0,9.0,6.0,41.25
230414,82812200,1398245294374.1082,-5.2854,-1.5101,-11.2377,-2.1565,-5.426,-0.9739,-0.264,-2.4342,-89.9166,47.4799,292.67,51.045306,13.776101,116.95,3.91,1.74,3.5,1.91,3.0,9.0,6.0,41.25
230414,82812200,1398245294390.3591,-0.4412,0.8139,-10.3257,-3.0608,-5.0086,-1.0434,-0.3808,-2.3942,-89.9683,47.4799,292.67,51.045306,13.776101,116.95,3.91,1.74,3.5,1.91,3.0,9.0,6.0,41.25
230414,82812200,1398245294409.209,-1.3728,-0.4412,-10.8356,-1.3913,-4.1739,-1.113,0.3497,-1.7191,-89.9583,47.4799,292.67,51.045306,13.776101,116.95,3.91,1.74,3.5,1.91,3.0,9.0,6.0,41.25
230414,82812200,1398245294421.268,-0.5001,-0.5687,-9.1882,-0.5565,-2.9913,-1.4608,0.9367,-1.9066,-89.9458,47.4799,292.67,51.04531,13.776082999999998,116.95,3.91,1.74,3.5,1.91,3.0,9.0,6.0,41.25
230414,82812200,1398245294436.022,-0.3039,0.1078,-9.4138,-1.5304,-2.9913,-1.3217,-0.4845,-1.8843,-89.9823,47.4799,292.67,51.04531,13.776082999999998,116.95,3.91,1.74,3.5,1.91,3.0,9.0,6.0,41.25
230414,82812300,1398245294460.5789,-0.2353,1.0884,-9.6197,-1.3913,-2.0173,-1.6695,-0.9632,-2.2437,-89.9384,47.44,292.33,51.04531,13.776082999999998,116.96,3.91,1.74,3.5,1.91,3.0,9.0,6.0,41.25
230414,82812300,1398245294476.0242,-0.8629,0.2941,-10.7572,-3.1304,-3.1304,-1.2521,-0.0342,-2.9486,-89.8607,47.44,292.33,51.04531,13.776082999999998,116.96,3.91,1.74,3.5,1.91,3.0,9.0,6.0,41.25
230414,82812300,1398245294525.2012,-0.5295,0.0588,-10.512,-2.4347,-2.1565,-1.0434,0.4215,-2.3074,-89.7891,47.44,292.33,51.04531,13.776082999999998,116.96,3.91,1.74,3.5,1.91,3.0,9.0,6.0,41.25
230414,82812300,1398245294549.3728,-1.2649,0.1274,-9.3353,-2.2956,-1.5304,-1.3217,0.4949,-2.6895,-89.79700000000001,47.44,292.33,51.045315,13.776066,116.96,3.91,1.74,3.5,1.91,3.0,9.0,6.0,41.25
230414,82812300,1398245294570.406,-0.147,-0.4608,-8.7175,-2.226,0.0,-1.3913,0.0089,-3.083,-89.7776,47.44,292.33,51.045315,13.776066,116.96,3.91,1.74,3.5,1.91,3.0,9.0,6.0,41.25
230414,82812400,1398245294592.63,0.2941,-0.3432,-8.541,-1.6695,-0.626,-1.4608,0.2334,-2.271,-89.6431,47.46,292.74,51.045315,13.776066,116.95,3.91,1.74,3.5,1.91,3.0,9.0,6.0,41.25
230414,82812400,1398245294610.2742,-0.755,0.6864,-9.9237,-0.6956,-1.0434,-1.7391,-1.2485,-2.5136,-89.5993,47.46,292.74,51.045315,13.776066,116.95,3.91,1.74,3.5,1.91,3.0,9.0,6.0,41.25
230414,82812400,1398245294621.458,-0.657,0.3334,-10.4336,-1.8086,-2.0869,-1.6695,-0.9631,-2.1781,-89.6506,47.46,292.74,51.045315,13.776066,116.95,3.91,1.74,3.5,1.91,3.0,9.0,6.0,41.25
230414,82812400,1398245294636.875,-0.4412,0.3922,-10.5709,-2.0173,-0.9043,-1.6,-0.8114,-2.2569,-89.7535,47.46,292.74,51.045319,13.776048000000001,116.95,3.91,1.74,3.5,1.91,3.0,9.0,6.0,41.25
230414,82812400,1398245294657.826,-0.1667,0.2059,-9.3843,-1.3217,0.0,-1.6695,-1.867,-2.2621,-89.8909,47.46,292.74,51.045319,13.776048000000001,116.95,3.91,1.74,3.5,1.91,3.0,9.0,6.0,41.25
230414,82812500,1398245294682.544,-0.1372,-0.2451,-9.0902,-0.626,-1.113,-1.6695,-0.8241,-1.6444,-90.0012,47.86,293.3,51.045319,13.776048000000001,116.92,3.91,1.74,3.5,1.91,3.0,9.0,6.0,41.25
230414,82812500,1398245294697.1182,0.2647,-0.1863,-8.2174,-0.5565,0.1391,-1.6,-1.401,-2.5305,-90.0538,47.86,293.3,51.045319,13.776048000000001,116.92,3.91,1.74,3.5,1.91,3.0,9.0,6.0,41.25
230414,82812500,1398245294715.983,-0.147,0.0294,-10.6689,-0.3478,-1.8782,-1.7391,-1.1797,-1.7646,-90.0794,47.86,293.3,51.045319,13.776048000000001,116.92,3.91,1.74,3.5,1.91,3.0,9.0,6.0,41.25
230414,82812500,1398245294739.2002,-0.8825,0.5197,-11.424000000000001,-1.2521,-2.6434,-1.3217,-1.3043,-1.57,-90.3,47.86,293.3,51.045324,13.776031,116.92,3.91,1.74,3.5,1.91,3.0,9.0,6.0,41.25
230414,82812500,1398245294750.436,-0.3922,0.4216,-10.4728,-1.7391,-2.3652,-1.5304,-0.938,-2.2919,-90.448,47.86,293.3,51.045324,13.776031,116.92,3.91,1.74,3.5,1.91,3.0,9.0,6.0,41.25
230414,82812600,1398245294770.448,-0.0882,0.3824,-9.5608,-1.5304,-1.8782,-1.6,-1.2274,-1.9507,-90.6076,47.77,293.22,51.045324,13.776031,116.92,3.91,1.74,3.5,1.91,3.0,9.0,6.0,41.25
230414,82812600,1398245294790.335,-0.1372,-0.4804,-8.9529,0.1391,-1.9478,-1.6695,-0.7123,-1.6673,-90.7288,47.77,293.22,51.045324,13.776031,116.92,3.91,1.74,3.5,1.91,3.0,9.0,6.0,41.25
230414,82812600,1398245294810.3918,-0.0098,-0.0294,-9.5314,0.1391,-2.713,-1.6695,-0.8068,-1.2896,-90.8627,47.77,293.22,51.045324,13.776031,116.92,3.91,1.74,3.5,1.91,3.0,9.0,6.0,41.25
230414,82812600,1398245294829.734,0.4314,0.3235,-9.7177,0.3478,-2.8521,-2.0173,-1.2221,-1.9039,-91.1279,47.77,293.22,51.045328000000005,13.776013,116.92,3.91,1.74,3.5,1.91,3.0,9.0,6.0,41.25
230414,82812600,1398245294851.394,-0.7648,0.706,-11.2083,-0.5565,-4.313,-1.9478,-1.1827,-2.541,-91.2546,47.77,293.22,51.045328000000005,13.776013,116.92,3.91,1.74,3.5,1.91,3.0,9.0,6.0,41.25
230414,82812700,1398245294872.322,-0.7942,0.3628,-11.0808,-1.1826,-4.2434,-1.6,-1.0592,-2.8255,-91.4184,48.34,293.7799,51.045328000000005,13.776013,116.92,3.91,1.74,3.5,1.91,3.0,9.0,6.0,41.25
230414,82812700,1398245294890.36,-0.2843,-0.0392,-10.1492,-1.0434,-3.4086,-1.6,-0.7440000000000001,-2.0517,-91.6201,48.34,293.7799,51.045328000000005,13.776013,116.92,3.91,1.74,3.5,1.91,3.0,9.0,6.0,41.25
230414,82812700,1398245294910.415,0.0686,-0.1078,-9.7374,0.0695,-3.2,-1.8782,-0.581,-1.7566,-91.8437,48.34,293.7799,51.045328000000005,13.776013,116.92,3.91,1.74,3.5,1.91,3.0,9.0,6.0,41.25
230414,82812700,1398245294931.7742,0.2549,-0.0784,-8.8646,-0.2782,-1.6,-1.9478,-0.4894,-2.2331,-92.0038,48.34,293.7799,51.045333,13.775996,116.92,3.91,1.74,3.5,1.91,3.0,9.0,6.0,41.25
230414,82812700,1398245294950.4858,-0.1961,0.2843,-10.3748,-0.626,-3.2,-2.0173,-1.0554,-1.8183,-92.2237,48.34,293.7799,51.045333,13.775996,116.92,3.91,1.74,3.5,1.91,3.0,9.0,6.0,41.25
230414,82812800,1398245294970.8792,-0.6864,0.7256,-10.6003,-0.9739,-3.4782,-2.1565,-1.5830000000000002,-2.0744,-92.3424,48.2299,293.07,51.045333,13.775996,116.91,3.91,1.74,3.5,1.91,3.0,9.0,6.0,41.25
230414,82812800,1398245294990.478,-0.8433,0.402,-11.022,-1.7391,-3.826,-1.9478,-1.089,-1.9473,-92.4151,48.2299,293.07,51.045333,13.775996,116.91,3.91,1.74,3.5,1.91,3.0,9.0,6.0,41.25
230414,82812800,1398245295011.6128,0.1078,-0.1176,-9.7276,-1.8086,-3.2,-2.0173,-0.6643,-1.0711,-92.5748,48.2299,293.07,51.045333,13.775996,116.91,3.91,1.74,3.5,1.91,3.0,9.0,6.0,41.25
230414,82812800,1398245295031.1091,0.2353,-0.402,-9.1784,-1.2521,-2.4347,-2.1565,-0.0253,-1.2036,-92.7265,48.2299,293.07,51.045338,13.775978,116.91,3.91,1.74,3.5,1.91,3.0,9.0,6.0,41.25
230414,82812800,1398245295050.408,0.2255,-0.0294,-9.7766,-1.3217,-2.3652,-2.2956,-0.5039,-0.9471,-92.9836,48.2299,293.07,51.045338,13.775978,116.91,3.91,1.74,3.5,1.91,3.0,9.0,6.0,41.25
230414,82812900,1398245295067.5508,-0.2941,0.4216,-9.9237,-1.8782,-2.713,-2.4347,-1.3482,-1.6809,-93.32700000000001,48.21,294.61,51.045338,13.775978,116.96,3.91,1.74,3.5,1.91,3.0,9.0,6.0,41.25
230414,82812900,1398245295082.1091,-0.5785,0.2549,-11.4436,-2.3652,-3.2,-2.0869,-1.1173,-1.9082,-93.5284,48.21,294.61,51.045338,13.775978,116.96,3.91,1.74,3.5,1.91,3.0,9.0,6.0,41.25
230414,82812900,1398245295097.165,-0.1274,0.3824,-10.4238,-2.6434,-2.9217,-2.1565,-1.2954,-0.6608,-93.6541,48.21,294.61,51.045338,13.775978,116.96,3.91,1.74,3.5,1.91,3.0,9.0,6.0,41.25
230414,82812900,1398245295111.145,0.402,0.049,-8.7764,-1.8782,-1.4608,-2.5043,-1.0417,-0.6348,-93.8813,48.21,294.61,51.045343,13.775960999999999,116.96,3.91,1.74,3.5,1.91,3.0,9.0,6.0,41.25
230414,82812900,1398245295130.4229,-0.049,-0.1765,-9.1784,-1.7391,-1.8782,-2.2956,-0.9346,-0.5104,-94.0404,48.21,294.61,51.045343,13.775960999999999,116.96,3.91,1.74,3.5,1.91,3.0,9.0,6.0,41.25
230414,82813000,1398245295152.505,0.3334,0.2059,-8.9823,-1.5304,-0.6956,-2.5739,-1.6638,-0.8418,-94.2575,48.59,294.52,51.045343,13.775960999999999,116.95,3.91,1.74,3.5,1.91,3.0,9.0,6.0,41.25
230414,82813000,1398245295170.3792,-0.755,0.4706,-10.2473,-2.2956,-2.9913,-2.2956,-1.9213,-1.7008,-94.4822,48.59,294.52,51.045343,13.775960999999999,116.95,3.91,1.74,3.5,1.91,3.0,9.0,6.0,41.25
230414,82813000,1398245295183.0298,0.049,0.5785,-9.8648,-2.9217,-1.7391,-2.2956,-2.2516,-1.3219999999999998,-94.7177,48.59,294.52,51.045343,13.775960999999999,116.95,3.91,1.74,3.5,1.91,3.0,9.0,6.0,41.25
230414,82813000,1398245295209.3142,-0.3137,0.2157,-9.9237,-2.713,-2.5043,-2.4347,-1.4926,-1.0956,-94.9448,48.59,294.52,51.045347,13.775943,116.95,3.91,1.74,3.5,1.91,3.0,9.0,6.0,41.25
230414,82813000,1398245295220.896,0.0392,0.0392,-9.2961,-2.2956,-0.9043,-2.5043,-0.8943,-1.2338,-95.2035,48.59,294.52,51.045347,13.775943,116.95,3.91,1.74,3.5,1.91,3.0,9.0,6.0,41.25
230414,82813100,1398245295236.5242,-0.1568,0.1568,-9.3647,-2.0173,-1.5304,-2.4347,-1.7532,-0.846,-95.4665,47.84,294.51,51.045347,13.775943,116.96,3.91,1.74,3.5,1.91,3.0,9.0,6.0,41.25
230414,82813100,1398245295260.147,0.6275,0.4216,-9.1588,-2.3652,-0.5565,-2.6434,-1.896,-1.2409,-95.7105,47.84,294.51,51.045347,13.775943,116.96,3.91,1.74,3.5,1.91,3.0,9.0,6.0,41.25
230414,82813100,1398245295276.1008,0.0196,0.5393,-9.7177,-2.8521,-0.9739,-2.713,-1.8573,-1.2966,-95.9213,47.84,294.51,51.045347,13.775943,116.96,3.91,1.74,3.5,1.91,3.0,9.0,6.0,41.25
230414,82813100,1398245295299.0242,-0.4412,0.7158,-10.414000000000001,-3.4086,-1.6,-2.5739,-2.0864,-1.7619999999999998,-96.2244,47.84,294.51,51.045352,13.775926,116.96,3.91,1.74,3.5,1.91,3.0,9.0,6.0,41.25
230414,82813100,1398245295316.114,0.1765,0.1765,-8.9921,-3.4086,-0.2086,-2.5739,-1.7177,-1.6961,-96.434,47.84,294.51,51.045352,13.775926,116.96,3.91,1.74,3.5,1.91,3.0,9.0,6.0,41.25
230414,82813200,1398245295336.468,0.2843,0.0784,-9.1196,-2.7826,-0.2782,-2.4347,-1.9722,-0.4715,-96.6749,47.76,294.45,51.045352,13.775926,116.97,3.91,1.74,3.5,1.91,3.0,9.0,6.0,41.25
230414,82813200,1398245295359.896,-0.147,0.0294,-9.4432,-2.1565,-0.5565,-2.5739,-2.1871,-0.3613,-96.9098,47.76,294.45,51.045352,13.775926,116.97,3.91,1.74,3.5,1.91,3.0,9.0,6.0,41.25
230414,82813200,1398245295370.6711,0.3432,0.5099,-9.2372,-2.0869,-0.6956,-2.8521,-3.0235,-0.0105,-97.2315,47.76,294.45,51.045352,13.775926,116.97,3.91,1.74,3.5,1.91,3.0,9.0,6.0,41.25
230414,82813200,1398245295392.656,-0.4216,0.9021,-10.0413,-2.3652,-2.226,-2.713,-3.8115,-0.5487,-97.5019,47.76,294.45,51.045357,13.775909,116.97,3.91,1.74,3.5,1.91,3.0,9.0,6.0,41.25
230414,82813200,1398245295410.304,-0.098,0.4804,-9.2176,-2.3652,-1.0434,-2.7826,-2.6082,-1.2343,-97.544,47.76,294.45,51.045357,13.775909,116.97,3.91,1.74,3.5,1.91,3.0,9.0,6.0,41.25
230414,82813300,1398245295430.849,0.0294,0.1078,-9.9531,-2.5043,-1.3913,-2.5739,-1.929,-0.5207,-97.603,47.84,295.14,51.045357,13.775909,116.92,3.91,1.74,3.5,1.91,3.0,9.0,6.0,41.25
230414,82813300,1398245295450.34,-0.2941,-0.0294,-9.404,-2.0869,-1.113,-2.5043,-1.9142,-0.1106,-97.7531,47.84,295.14,51.045357,13.775909,116.92,3.91,1.74,3.5,1.91,3.0,9.0,6.0,41.25
230414,82813300,1398245295471.55,0.1961,0.3235,-8.6587,-2.6434,-0.0695,-2.9913,-2.496,-0.369,-97.8832,47.84,295.14,51.045357,13.775909,116.92,3.91,1.74,3.5,1.91,3.0,9.0,6.0,41.25
230414,82813300,1398245295485.06,0.3432,0.657,-9.4236,-3.4086,-0.4869,-2.9913,-2.2124,-0.9115,-98.0834,47.84,295.14,51.045362,13.775892,116.92,3.91,1.74,3.5,1.91,3.0,9.0,6.0,41.25
230414,82813300,1398245295499.6821,-0.049,0.6177,-9.3549,-3.826,-0.7652,-2.8521,-2.0056,-1.3425,-98.2431,47.84,295.14,51.045362,13.775892,116.92,3.91,1.74,3.5,1.91,3.0,9.0,6.0,41.25
230414,82813400,1398245295516.458,-0.4608,0.4903,-10.4336,-3.1304,-1.5304,-2.6434,-2.352,-1.1991,-98.4384,47.32,295.35,51.045362,13.775892,116.95,3.91,1.74,3.5,1.91,3.0,9.0,6.0,41.25
230414,82813400,1398245295534.214,0.4804,0.0098,-9.5707,-2.0869,-0.1391,-2.4347,-2.8169,-0.2318,-98.5823,47.32,295.35,51.045362,13.775892,116.95,3.91,1.74,3.5,1.91,3.0,9.0,6.0,41.25
230414,82813400,1398245295550.362,0.0588,0.2353,-8.7469,-1.5304,0.8347,-2.8521,-3.1667,-0.8463,-98.7471,47.32,295.35,51.045362,13.775892,116.95,3.91,1.74,3.5,1.91,3.0,9.0,6.0,41.25
230414,82813400,1398245295572.291,0.0686,1.2453,-6.5602,-0.6956,1.113,-2.9913,-4.7844,-1.9395,-98.7104,47.32,295.35,51.045367,13.775875,116.95,3.91,1.74,3.5,1.91,3.0,9.0,6.0,41.25
230414,82813400,1398245295590.32,0.9904,1.3924,-10.1296,-0.1391,-0.626,-2.713,-5.1464,-0.8186,-98.4492,47.32,295.35,51.045367,13.775875,116.95,3.91,1.74,3.5,1.91,3.0,9.0,6.0,41.25
230414,82813500,1398245295612.9658,0.7746,0.5393,-11.8849,0.3478,0.9043,-2.713,-4.0584,0.8433,-98.5862,47.4099,295.58,51.045367,13.775875,116.88,3.91,1.74,3.5,1.91,3.0,9.0,6.0,41.25
230414,82813500,1398245295626.72,0.2843,0.3235,-11.5024,-1.1826,-1.6695,-2.713,-3.5265,1.0525,-98.9169,47.4099,295.58,51.045367,13.775875,116.88,3.91,1.74,3.5,1.91,3.0,9.0,6.0,41.25
230414,82813500,1398245295649.91,0.402,0.6864,-8.7371,-0.2782,-0.9043,-3.0608,-3.1146,1.0096,-99.0722,47.4099,295.58,51.045367,13.775875,116.88,3.91,1.74,3.5,1.91,3.0,9.0,6.0,41.31
230414,82813500,1398245295671.14,1.2355,0.7256,-11.0514,-0.2086,-3.1304,-2.8521,-2.8095,1.9192,-99.3425,47.4099,295.58,51.045371,13.775858,116.88,3.91,1.74,3.5,1.91,3.0,9.0,6.0,41.31
230414,82813500,1398245295690.3838,0.2451,0.5491,-12.3458,-1.1826,-4.5217,-3.0608,-2.1586,1.2713,-99.6525,47.4099,295.58,51.045371,13.775858,116.88,3.91,1.74,3.5,1.91,3.0,9.0,6.0,41.31
230414,82813600,1398245295713.085,0.5491,-0.2059,-11.1298,-2.4347,-6.1217,-2.713,-2.3109,1.3403,-99.9419,47.51,294.73,51.045371,13.775858,116.81,3.91,1.74,3.5,1.91,3.0,9.0,6.0,41.31
230414,82813600,1398245295727.3108,0.147,0.1765,-11.9143,-2.1565,-7.2347,-2.8521,-2.5628,1.1094,-100.1774,47.51,294.73,51.045371,13.775858,116.81,3.91,1.74,3.5,1.91,3.0,9.0,6.0,41.31
230414,82813600,1398245295740.606,0.1961,0.402,-10.0315,-0.2782,-5.912999999999999,-2.9913,-3.4531,0.5007,-100.2708,47.51,294.73,51.045371,13.775858,116.81,3.91,1.74,3.5,1.91,3.0,9.0,6.0,41.31
230414,82813600,1398245295760.436,1.0296,0.9413,-8.9921,0.2782,-6.6782,-3.2,-5.1528,1.9180000000000001,-100.3741,47.51,294.73,51.045377,13.775841,116.81,3.91,1.74,3.5,1.91,3.0,9.0,6.0,41.31
230414,82813600,1398245295774.229,-0.1274,1.4022,-10.1688,1.7391,-10.5043,-2.9913,-6.6872,1.2739,-100.5,47.51,294.73,51.045377,13.775841,116.81,3.91,1.74,3.5,1.91,3.0,9.0,6.0,41.31
230414,82813700,1398245295798.316,0.5295,1.4709,-11.2181,0.2782,-8.2086,-2.9913,-5.7808,1.3556,-100.5441,46.71,296.18,51.045377,13.775841,116.84,3.91,1.74,3.5,1.91,3.0,9.0,6.0,41.31
230414,82813700,1398245295810.311,-0.4412,0.8923,-11.5221,0.5565,-7.9304,-2.7826,-4.039,-0.1526,-100.5879,46.71,296.18,51.045377,13.775841,116.84,3.91,1.74,3.5,1.91,3.0,9.0,6.0,41.31
230414,82813700,1398245295828.378,-0.7746,0.8139,-10.5807,0.0,-7.7217,-2.3652,-2.5805,-0.8717,-100.4115,46.71,296.18,51.045377,13.775841,116.84,3.91,1.74,3.5,1.91,3.0,9.0,6.0,41.31
230414,82813700,1398245295841.335,-0.9511,0.3039,-9.7177,-0.2782,-5.7739,-2.3652,-1.9205,-0.4659,-100.4549,46.71,296.18,51.045381,13.775823999999998,116.84,3.91,1.74,3.5,1.91,3.0,9.0,6.0,41.31
230414,82813700,1398245295857.1738,0.6766,-0.5491,-9.6393,-0.1391,-3.9652,-2.8521,-1.0493,-0.5511,-100.4866,46.71,296.18,51.045381,13.775823999999998,116.84,3.91,1.74,3.5,1.91,3.0,9.0,6.0,41.31
230414,82813800,1398245295882.296,-1.0296,0.7942,-9.7766,-1.1826,-3.1304,-2.9913,-1.0265,-1.6305,-100.48700000000001,46.7,296.1,51.045381,13.775823999999998,116.78,3.91,1.74,3.5,1.91,3.0,9.0,6.0,41.31
230414,82813800,1398245295897.1929,-1.0492,0.3824,-10.3649,-2.3652,-5.1478,-2.713,-0.9872,-2.2531,-100.5033,46.7,296.1,51.045381,13.775823999999998,116.78,3.91,1.74,3.5,1.91,3.0,9.0,6.0,41.31
230414,82813800,1398245295910.344,-0.4608,0.4706,-11.0514,-1.6695,-1.9478,-2.9217,-1.547,-1.1638,-100.4493,46.7,296.1,51.045381,13.775823999999998,116.78,3.91,1.74,3.5,1.91,3.0,9.0,6.0,41.31
230414,82813800,1398245295922.059,1.01,0.6373,-7.8839999999999995,-0.626,-1.5304,-3.1304,-2.4025,-0.3028,-100.5316,46.7,296.1,51.045387,13.775807999999998,116.78,3.91,1.74,3.5,1.91,3.0,9.0,6.0,41.31
230414,82813800,1398245295936.2048,0.0686,0.6079,-9.3745,0.0,-2.1565,-2.9217,-3.3272,-0.2879,-100.5621,46.7,296.1,51.045387,13.775807999999998,116.78,3.91,1.74,3.5,1.91,3.0,9.0,6.0,41.31
230414,82813900,1398245295969.7258,-0.2157,-0.2941,-9.8354,0.8347,-3.9652,-3.1304,-2.05,0.7537,-100.6435,46.22,297.13,51.045387,13.775807999999998,116.77,3.91,1.74,3.5,1.91,3.0,9.0,6.0,41.31
230414,82813900,1398245295982.366,-0.2451,0.8825,-9.9433,-0.6956,-2.5043,-3.2,-2.6949,-0.4016,-100.7194,46.22,297.13,51.045387,13.775807999999998,116.77,3.91,1.74,3.5,1.91,3.0,9.0,6.0,41.31
230414,82813900,1398245295997.282,-1.1375,0.147,-10.5709,-1.7391,-2.2956,-2.6434,-1.3493,-0.9601,-100.6998,46.22,297.13,51.045387,13.775807999999998,116.77,3.91,1.74,3.5,1.91,3.0,9.0,6.0,41.31
230414,82813900,1398245296011.162,-0.1863,-0.2255,-9.6785,-1.6695,-1.113,-2.6434,-1.3512,-0.2991,-100.6227,46.22,297.13,51.045392,13.775792000000001,116.77,3.91,1.74,3.5,1.92,3.0,9.0,6.0,41.31
230414,82813900,1398245296030.397,-0.2549,-0.2647,-9.6099,-1.6,0.2782,-3.0608,-0.3282,-0.475,-100.5562,46.22,297.13,51.045392,13.775792000000001,116.77,3.91,1.74,3.5,1.92,3.0,9.0,6.0,41.31
230414,82814000,1398245296050.85,0.5001,-0.353,-8.6783,-2.4347,0.6956,-2.9913,0.1544,0.4352,-100.5969,46.24,296.91,51.045392,13.775792000000001,116.79,3.91,1.74,3.5,1.92,3.0,9.0,6.0,41.31
230414,82814000,1398245296070.4702,0.0392,0.049,-9.4432,-2.0869,0.5565,-2.7826,-0.9446,0.3539,-100.6841,46.24,296.91,51.045392,13.775792000000001,116.79,3.91,1.74,3.5,1.92,3.0,9.0,6.0,41.31
230414,82814000,1398245296083.261,-0.402,0.5589,-10.061,-2.8521,-1.4608,-3.0608,-1.7451,0.3571,-100.6997,46.24,296.91,51.045392,13.775792000000001,116.79,3.91,1.74,3.5,1.92,3.0,9.0,6.0,41.31
230414,82814000,1398245296109.3071,0.3432,0.6766,-9.8746,-2.5043,-1.1826,-2.9913,-2.5935,1.7928,-100.7243,46.24,296.91,51.045396999999994,13.775775,116.79,3.91,1.74,3.5,1.91,3.0,9.0,6.0,41.31
230414,82814000,1398245296120.599,0.6079,0.3726,-9.5608,-0.8347,-1.0434,-3.2695,-2.8926,1.432,-100.8384,46.24,296.91,51.045396999999994,13.775775,116.79,3.91,1.74,3.5,1.91,3.0,9.0,6.0,41.31
230414,82814100,1398245296132.965,0.8433,0.5393,-8.59,-0.6956,-0.3478,-3.2,-2.8475,1.0338,-100.7821,46.1599,297.0299,51.045396999999994,13.775775,116.78,3.91,1.74,3.5,1.91,3.0,9.0,6.0,41.31
230414,82814100,1398245296150.335,-0.3824,0.3039,-9.7276,-0.9043,-2.4347,-3.1304,-2.9736,0.5639,-100.6548,46.1599,297.0299,51.045396999999994,13.775775,116.78,3.91,1.74,3.5,1.91,3.0,9.0,6.0,41.31
230414,82814100,1398245296170.471,-0.2059,0.5491,-10.4238,-1.7391,-2.1565,-2.9217,-2.6413,1.1332,-100.5417,46.1599,297.0299,51.045396999999994,13.775775,116.78,3.91,1.74,3.5,1.91,3.0,9.0,6.0,41.31
230414,82814100,1398245296183.9229,0.098,0.3726,-9.7079,-2.0173,-2.2956,-2.8521,-1.8845,0.8413,-100.5334,46.1599,297.0299,51.045402,13.775758999999999,116.78,3.91,1.74,3.5,1.91,3.0,9.0,6.0,41.31
230414,82814100,1398245296200.977,0.3235,0.3137,-10.1296,-2.0173,-1.9478,-2.8521,-1.4025,1.2811,-100.4434,46.1599,297.0299,51.045402,13.775758999999999,116.78,3.91,1.74,3.5,1.91,3.0,9.0,6.0,41.31
230414,82814200,1398245296216.6208,0.3922,0.0,-8.8548,-0.9739,-1.1826,-2.9217,-1.7177,0.7918,-100.3371,46.1,297.45,51.045402,13.775758999999999,116.81,3.91,1.74,3.5,1.91,3.0,9.0,6.0,41.31
230414,82814200,1398245296230.377,0.0686,0.5785,-9.0215,-0.626,-0.8347,-3.0608,-2.2482,0.7903,-100.1832,46.1,297.45,51.045402,13.775758999999999,116.81,3.91,1.74,3.5,1.91,3.0,9.0,6.0,41.31
230414,82814200,1398245296249.937,-0.2157,0.8335,-10.2767,-1.5304,-1.8782,-2.9217,-3.7205,0.536,-100.1546,46.1,297.45,51.045402,13.775758999999999,116.81,3.91,1.74,3.5,1.91,3.0,9.0,6.0,41.31
230414,82814200,1398245296271.8691,-0.1961,0.5295,-10.6297,-1.5304,-2.226,-3.1304,-2.9062,0.6136,-100.1829,46.1,297.45,51.045407,13.775742999999999,116.81,3.91,1.74,3.5,1.91,3.0,9.0,6.0,41.31
230414,82814200,1398245296291.929,0.4314,-0.1667,-10.2277,-0.9739,-1.3217,-2.9913,-1.6204,0.7785,-100.2188,46.1,297.45,51.045407,13.775742999999999,116.81,3.91,1.74,3.5,1.91,3.0,9.0,6.0,41.31
230414,82814300,1398245296310.892,0.9119,0.3235,-8.6097,-0.626,-0.4173,-3.0608,-2.3089,1.3298,-100.2062,45.9799,297.38,51.045407,13.775742999999999,116.78,3.91,1.74,3.5,1.91,3.0,9.0,6.0,41.31
230414,82814300,1398245296330.358,0.0784,0.5197,-9.8158,-0.7652,-1.113,-2.9913,-2.0529,0.4674,-100.2742,45.9799,297.38,51.045407,13.775742999999999,116.78,3.91,1.74,3.5,1.91,3.0,9.0,6.0,41.31
230414,82814300,1398245296350.982,-0.0098,0.5001,-10.8651,-2.3652,-2.713,-2.7826,-1.6615,0.8913,-100.3998,45.9799,297.38,51.045407,13.775742999999999,116.78,3.91,1.74,3.5,1.91,3.0,9.0,6.0,41.31
230414,82814300,1398245296371.2341,0.0,0.1176,-10.1198,-2.4347,-1.9478,-2.7826,-0.7402,0.386,-100.4845,45.9799,297.38,51.045413,13.775727,116.78,3.91,1.74,3.5,1.91,3.0,9.0,6.0,41.31
230414,82814300,1398245296390.35,0.6373,0.1863,-10.0119,-2.8521,-2.0173,-2.7826,-0.6745,1.2079,-100.5315,45.9799,297.38,51.045413,13.775727,116.78,3.91,1.74,3.5,1.91,3.0,9.0,6.0,41.31
230414,82814400,1398245296412.999,0.3137,0.3432,-9.7079,-2.2956,-2.2956,-2.9913,-1.6333,1.6492,-100.5932,45.57,297.98,51.045413,13.775727,116.79,3.91,1.74,3.5,1.91,3.0,9.0,6.0,41.31
230414,82814400,1398245296430.3792,0.0784,0.3824,-10.0806,-2.226,-3.0608,-3.1304,-1.6986,0.3301,-100.6196,45.57,297.98,51.045413,13.775727,116.79,3.91,1.74,3.5,1.91,3.0,9.0,6.0,41.31
230414,82814400,1398245296441.883,-0.1568,0.2451,-10.0217,-2.713,-2.713,-2.9913,-1.5315,-0.1928,-100.6211,45.57,297.98,51.045413,13.775727,116.79,3.91,1.74,3.5,1.91,3.0,9.0,6.0,41.31
230414,82814400,1398245296460.6821,0.0098,0.1372,-10.0119,-2.9217,-3.2,-2.8521,-1.0931,0.3244,-100.7135,45.57,297.98,51.045418,13.775711,116.79,3.91,1.74,3.5,1.91,3.0,9.0,6.0,41.31
230414,82814400,1398245296476.218,0.5589,-0.0882,-9.6687,-2.5739,-2.6434,-2.7826,-0.6811,0.9019,-100.8254,45.57,297.98,51.045418,13.775711,116.79,3.91,1.74,3.5,1.91,3.0,9.0,6.0,41.31
230414,82814500,1398245296497.018,0.0784,-0.2255,-9.3059,-2.8521,-2.2956,-2.7826,-0.4814,0.1387,-101.0047,45.65,297.85,51.045418,13.775711,116.81,3.91,1.74,3.5,1.91,3.0,9.0,6.0,41.31
230414,82814500,1398245296510.33,-0.2647,-0.098,-10.2865,-3.6869,-2.7826,-2.713,-1.2642,0.0206,-101.0818,45.65,297.85,51.045418,13.775711,116.81,3.91,1.74,3.5,1.91,3.0,9.0,6.0,41.31
230414,82814500,1398245296530.3792,0.3235,0.3334,-9.5216,-4.4521,-2.6434,-2.7826,-1.5822,0.1204,-101.2587,45.65,297.85,51.045418,13.775711,116.81,3.91,1.74,3.5,1.91,3.0,9.0,6.0,41.31
230414,82814500,1398245296542.3171,0.7158,0.1863,-10.0315,-5.0086,-2.2956,-2.713,-1.1243,0.745,-101.3675,45.65,297.85,51.045423,13.775695,116.81,3.91,1.74,3.5,1.91,3.0,9.0,6.0,41.31
230414,82814500,1398245296560.789,0.8923,-0.5393,-10.6199,-5.0782,-2.713,-2.6434,0.4127,1.1835,-101.5333,45.65,297.85,51.045423,13.775695,116.81,3.91,1.74,3.5,1.91,3.0,9.0,6.0,41.31
230414,82814600,1398245296576.695,0.0784,-0.5295,-10.2375,-5.4956,-2.5739,-2.7826,0.5504,0.10300000000000001,-101.7398,45.65,298.33,51.045423,13.775695,116.82,3.91,1.74,3.5,1.91,3.0,9.0,6.0,41.31
230414,82814600,1398245296590.6702,0.1078,0.4314,-9.1784,-5.9826,-2.4347,-2.6434,-1.1274,-0.2437,-101.8206,45.65,298.33,51.045423,13.775695,116.82,3.91,1.74,3.5,1.91,3.0,9.0,6.0,41.31
230414,82814600,1398245296611.844,0.6864,0.3628,-10.9239,-5.7739,-3.6173,-2.8521,-2.0506,0.8412,-102.0042,45.65,298.33,51.045423,13.775695,116.82,3.91,1.74,3.5,1.91,3.0,9.0,6.0,41.31
230414,82814600,1398245296631.164,0.7452,0.5491,-9.9825,-5.4956,-3.0608,-2.9913,-3.1946,1.6518,-102.2116,45.65,298.33,51.045429,13.775679,116.82,3.91,1.74,3.5,1.92,3.0,9.0,6.0,41.31
230414,82814600,1398245296650.3691,0.8433,0.3628,-9.453,-3.8956,-3.1304,-3.1304,-3.2931,0.8059,-102.3038,45.65,298.33,51.045429,13.775679,116.82,3.91,1.74,3.5,1.92,3.0,9.0,6.0,41.31
230414,82814700,1398245296670.877,0.3628,0.755,-9.9237,-3.4782,-4.0347,-2.9217,-3.7769999999999997,0.907,-102.3106,45.52,298.43,51.045429,13.775679,116.83,3.91,1.74,3.5,1.92,3.0,9.0,6.0,41.31
230414,82814700,1398245296687.7258,-0.2843,1.314,-9.453,-3.4086,-4.8,-3.0608,-5.3617,0.5523,-102.4489,45.52,298.43,51.045429,13.775679,116.83,3.91,1.74,3.5,1.92,3.0,9.0,6.0,41.31
230414,82814700,1398245296700.9631,-0.657,0.6962,-10.5218,-2.5739,-4.2434,-2.8521,-5.2744,0.0063,-102.5548,45.52,298.43,51.045429,13.775679,116.83,3.91,1.74,3.5,1.92,3.0,9.0,6.0,41.31
230414,82814700,1398245296716.99,0.8531,0.5785,-8.5116,-1.6695,-2.2956,-2.9217,-5.1541,0.9723,-102.5888,45.52,298.43,51.045434,13.775663,116.83,3.91,1.74,3.5,1.92,3.0,9.0,6.0,41.31
230414,82814700,1398245296736.277,0.2255,-0.2549,-9.5314,-2.226,-2.5739,-2.9913,-2.7435,0.7696,-102.7714,45.52,298.43,51.045434,13.775663,116.83,3.91,1.74,3.5,1.92,3.0,9.0,6.0,41.31
230414,82814800,1398245296763.7158,-0.5197,0.3824,-8.9136,-3.8956,-2.713,-2.9913,-2.53,-0.8923,-102.9703,45.62,297.92,51.045434,13.775663,116.89,3.91,1.74,3.5,1.92,3.0,9.0,6.0,41.31
230414,82814800,1398245296776.273,-0.0686,0.3432,-9.8648,-5.1478,-2.3652,-2.8521,-2.3365,-0.8538,-103.0137,45.62,297.92,51.045434,13.775663,116.89,3.91,1.74,3.5,1.92,3.0,9.0,6.0,41.31
230414,82814800,1398245296791.854,0.7844,0.2255,-10.0021,-3.6173,-0.7652,-2.9217,-2.8181,0.6238,-103.1543,45.62,297.92,51.045434,13.775663,116.89,3.91,1.74,3.5,1.92,3.0,9.0,6.0,41.31
230414,82814800,1398245296854.358,0.0882,0.1961,-9.7079,-3.5478,-0.4869,-2.7826,-1.7288,-0.1415,-103.346,45.62,297.92,51.04544,13.775647,116.89,3.91,1.74,3.5,1.92,3.0,9.0,6.0,41.31
230414,82814800,1398245297026.804,0.6668,1.5689,-9.3941,-3.6173,-0.1391,-2.5739,-3.6806,0.3414,-103.4731,45.62,297.92,51.04544,13.775647,116.89,3.91,1.74,3.5,1.92,3.0,9.0,6.0,41.31
230414,82814900,1398245297051.025,-0.2549,0.2843,-9.855,-3.2695,-1.0434,-2.6434,-2.8367,-0.292,-103.7115,44.87,298.0899,51.04544,13.775647,117.05,3.91,1.74,3.5,1.92,3.0,9.0,6.0,41.31
230414,82814900,1398245297065.4229,0.0196,0.9707,-9.7276,-4.313,-1.2521,-2.0869,-3.674,0.3671,-103.8186,44.87,298.0899,51.04544,13.775647,117.05,3.91,1.74,3.5,1.92,3.0,9.0,6.0,41.31
230414,82814900,1398245297077.372,0.6766,0.755,-9.2569,-1.1826,-1.4608,-2.4347,-4.5092,2.0287,-103.8509,44.87,298.0899,51.04544,13.775647,117.05,3.91,1.74,3.5,1.92,3.0,9.0,6.0,41.31
230414,82814900,1398245297109.179,0.7844,0.7746,-9.1196,-0.2086,-1.113,-2.4347,-4.4923,2.3991,-104.0308,44.87,298.0899,51.045445,13.775631,117.05,3.91,1.74,3.5,1.92,3.0,9.0,6.0,41.31
230414,82814900,1398245297120.3691,-0.049,-0.0588,-11.1396,-1.8782,-2.9913,-2.0869,-2.9743,1.4563,-104.4095,44.87,298.0899,51.045445,13.775631,117.05,3.91,1.74,3.5,1.92,3.0,9.0,6.0,41.31
230414,82815000,1398245297136.721,0.5589,-0.0686,-9.2176,-3.0608,-1.1826,-2.226,-2.061,1.3859,-104.6456,44.85,297.97,51.045445,13.775631,117.05,3.91,1.74,3.5,1.92,3.0,9.0,6.0,41.31
230414,82815000,1398245297160.051,-0.0294,0.4216,-9.1392,-2.5043,-2.0173,-2.226,-2.3095,0.5409,-104.7677,44.85,297.97,51.045445,13.775631,117.05,3.91,1.74,3.5,1.92,3.0,9.0,6.0,41.31
230414,82815000,1398245297172.006,0.5687,0.5393,-9.0019,-2.9913,-0.5565,-2.2956,-2.5301,0.8685,-104.76299999999999,44.85,297.97,51.045445,13.775631,117.05,3.91,1.74,3.5,1.92,3.0,9.0,6.0,41.31
230414,82815000,1398245297191.165,-0.1667,0.6766,-10.463,-2.3652,-1.9478,-2.5043,-3.77,1.1595,-104.7959,44.85,297.97,51.04545,13.775616000000001,117.05,3.91,1.74,3.5,1.92,3.0,9.0,6.0,41.31
230414,82815000,1398245297212.64,0.2941,0.7256,-9.6393,-1.7391,-0.9043,-2.5739,-4.0177,1.3673,-104.7043,44.85,297.97,51.04545,13.775616000000001,117.05,3.91,1.74,3.5,1.92,3.0,9.0,6.0,41.31
230414,82815100,1398245297230.815,0.4314,0.8335,-8.845,-0.5565,-1.0434,-2.8521,-4.1492,1.8169,-104.5183,44.44,298.87,51.04545,13.775616000000001,117.11,3.91,1.74,3.5,1.92,3.0,9.0,6.0,41.31
230414,82815100,1398245297298.7349,0.4412,0.6177,-8.4233,-0.0695,-0.2782,-2.9913,-3.7851,2.0455,-104.381,44.44,298.87,51.04545,13.775616000000001,117.11,3.91,1.74,3.5,1.92,3.0,9.0,6.0,41.31
230414,82815100,1398245297310.86,-0.4412,0.2451,-9.2176,-0.6956,-0.626,-2.8521,-3.4004,0.8996,-104.4839,44.44,298.87,51.04545,13.775616000000001,117.11,3.91,1.74,3.5,1.92,3.0,9.0,6.0,41.31
230414,82815100,1398245297331.21,-0.2549,0.2745,-9.3157,-1.6695,-0.4869,-2.5739,-2.425,-0.0042,-104.6375,44.44,298.87,51.045456,13.7756,117.11,3.91,1.74,3.5,1.92,3.0,9.0,6.0,41.31
230414,82815100,1398245297350.4421,0.3824,0.8727,-9.3157,-1.7391,-0.2086,-2.3652,-2.9539,0.3379,-104.6029,44.44,298.87,51.045456,13.7756,117.11,3.91,1.74,3.5,1.92,3.0,9.0,6.0,41.31
230414,82815200,1398245297373.427,0.2843,0.3334,-8.6881,-0.4869,1.2521,-2.713,-3.0743,0.9523,-104.5255,44.32,299.11,51.045456,13.7756,117.09,3.91,1.74,3.5,1.92,3.0,9.0,6.0,41.31
230414,82815200,1398245297390.347,-0.4216,0.2059,-9.3843,-0.3478,1.6695,-2.5043,-2.8091,-0.1142,-104.41,44.32,299.11,51.045456,13.7756,117.09,3.91,1.74,3.5,1.92,3.0,9.0,6.0,41.31
230414,82815200,1398245297410.157,-0.1274,0.3235,-9.3843,-1.0434,1.2521,-2.226,-2.3891,0.5585,-104.3855,44.32,299.11,51.045456,13.7756,117.09,3.91,1.74,3.5,1.92,3.0,9.0,6.0,41.31
230414,82815200,1398245297449.259,0.5099,0.5393,-9.4236,-0.626,1.6,-2.3652,-2.3622,1.3219,-104.2894,44.32,299.11,51.045460999999996,13.775585000000001,117.09,3.91,1.74,3.5,1.92,3.0,9.0,6.0,41.31
